"Time (s)","Linear Acceleration x (m/s^2)","Linear Acceleration y (m/s^2)","Linear Acceleration z (m/s^2)","Absolute acceleration (m/s^2)"
2.040874999E-3,3.576423726E0,1.903930892E0,-2.334965849E0,4.676304634E0
1.202887500E-2,2.621985054E0,-3.010339576E-1,-9.911347742E-1,2.819179882E0
2.201687499E-2,1.615940611E0,-4.705438623E-1,2.978523414E-1,1.709207887E0
3.200487500E-2,6.728069454E-1,-4.648381492E-1,-1.315408637E-1,8.282793548E-1
4.199287500E-2,-4.320838013E0,-2.347698307E0,-4.424653865E-1,4.937317500E0
5.198087500E-2,-9.561066488E0,-3.626290535E0,5.087182868E-1,1.023829916E1
6.196887499E-2,-6.086031142E0,-1.596201580E0,1.135052001E0,6.393432380E0
7.195687500E-2,-7.024418038E-1,5.784191439E-1,5.627366191E-1,1.069890507E0
8.194487500E-2,7.739491582E-2,5.751546434E-1,-2.919155172E-1,6.496210479E-1
9.193287500E-2,-7.277444601E-3,5.631535256E-1,-3.480306610E-1,6.620575471E-1
1.019208750E-1,7.292337459E-1,4.762141997E-1,-4.048391385E-1,9.604460153E-1
1.119088750E-1,1.265842082E0,3.473076528E-1,-5.630115844E-1,1.428271972E0
1.218968750E-1,1.415615003E0,-1.215130350E-1,-2.788293023E-1,1.447921625E0
1.318848750E-1,1.210877670E0,-4.705637428E-1,2.693227530E-3,1.299100543E0
1.418728750E-1,6.712059778E-1,-2.771018887E-1,-1.271373256E-1,7.372020218E-1
1.518608750E-1,4.499181014E-1,-2.382319379E-1,-4.986865112E-1,7.126492761E-1
1.618488750E-1,1.040383387E-1,9.080725908E-4,-6.173572147E-1,6.260628811E-1
1.718368750E-1,2.209540004E-1,3.092621595E-1,-5.392427990E-1,6.597321804E-1
1.818248750E-1,4.682087767E-1,5.789357454E-1,-3.569464955E-1,8.257099106E-1
1.918128750E-1,8.421861649E-2,8.709936422E-1,-3.690011153E-1,9.496760096E-1
2.018008750E-1,-3.337812889E-1,9.460689676E-1,-3.229640861E-1,1.053927057E0
2.117888750E-1,-1.764368087E-1,8.314360589E-1,-9.759441465E-2,8.555352344E-1
2.217768750E-1,4.756095976E-1,9.856207037E-1,-1.226109959E-1,1.101220285E0
2.317648750E-1,1.073685034E0,1.672303677E0,-1.854052681E-1,1.995939441E0
2.417528750E-1,2.256036478E0,2.517368426E0,-3.034383327E-1,3.393953329E0
2.517408750E-1,2.889205148E0,1.940903714E0,-4.935892010E-1,3.515429407E0
2.617288750E-1,2.916256707E0,1.497265522E0,3.217420180E-1,3.293914867E0
2.717168750E-1,1.245315431E0,1.484627935E0,2.930553734E0,3.513271384E0
2.817058750E-1,-9.361070663E-1,1.951157976E0,5.978441205E0,6.358071494E0
2.916938750E-1,4.071006954E-1,7.032650918E0,8.110398597E0,1.074255441E1
3.016818750E-1,-3.959627436E0,-1.289662469E0,-1.175185213E1,1.246787501E1
3.116698750E-1,-3.190605142E0,-3.354307884E0,-1.200152707E1,1.286343634E1
3.216578750E-1,2.655676711E-1,-9.597420967E-1,2.789883758E0,2.962276568E0
3.316458750E-1,1.192241424E-1,-2.785888356E0,1.057404047E0,2.982195776E0
3.416338750E-1,7.425332379E-1,-2.480183058E0,-3.888809468E0,4.671777252E0
3.516218750E-1,6.242195070E-2,-1.485492153E0,-2.108438137E0,2.579940855E0
3.616098750E-1,-1.232173814E0,-1.280353702E0,-3.278094544E-1,1.806935790E0
3.715978750E-1,-1.222062224E0,-1.159821537E0,-7.202769079E-1,1.832326636E0
3.815858750E-1,3.181651300E-1,-3.019718510E-1,1.275714521E0,1.349023197E0
3.915738750E-1,-1.920237315E-1,-4.647267598E-1,2.680267761E0,2.727027566E0
4.015618750E-1,-4.610979778E-1,-7.195864248E-1,1.609623864E0,1.822444773E0
4.115498750E-1,3.082599467E-1,-8.320950401E-1,9.332593992E-1,1.287780826E0
4.215378750E-1,1.246984811E0,-9.246225500E-1,2.735339177E-1,1.576299078E0
4.315258750E-1,1.814120876E0,-1.875699073E-1,8.011094749E-2,1.825550543E0
4.415138750E-1,2.765895556E0,5.260950422E-1,5.255518359E-1,2.864115737E0
4.515018750E-1,1.909504750E0,6.591946274E-1,5.954542758E-1,2.106017983E0
4.614898750E-1,1.353260880E0,1.207956401E0,2.362245157E-1,1.829282837E0
4.714778750E-1,3.401532336E0,1.553011706E0,2.998102523E0,4.792795253E0
4.814658750E-1,6.331139991E0,3.472519873E0,5.470289513E0,9.059017343E0
4.914538750E-1,3.982100332E0,2.288412511E0,-3.469845942E0,5.756195422E0
5.014418750E-1,-1.586071571E0,-6.412594628E-1,-8.362836930E0,8.536034105E0
5.114298750E-1,-2.450259347E0,1.889358169E0,-5.718489200E-1,3.146499062E0
5.214178750E-1,-1.165153321E0,3.703806489E0,3.211624712E0,5.038878651E0
5.314056667E-1,2.281925610E-1,3.208817464E0,9.153902350E-1,3.344625636E0
5.413936667E-1,-3.397325850E-1,2.242446379E0,-5.938962851E-1,2.344503527E0
5.513816667E-1,-1.496123853E0,2.083678687E0,7.272737592E-1,2.666276537E0
5.613696667E-1,-1.642374119E0,2.230986421E0,2.427286806E0,3.683261380E0
5.713576667E-1,4.440311247E-1,3.695004675E0,1.159463103E0,3.898022303E0
5.813456667E-1,1.232291343E0,3.212945598E0,3.017882484E-1,3.454364995E0
5.913336667E-1,9.365111089E-1,2.222548304E0,-6.730094053E-1,2.503940031E0
6.013216667E-1,1.649917319E0,2.488464469E0,-2.303194418E0,3.770860260E0
6.113096667E-1,8.309542483E-1,1.492590673E0,6.134939593E-1,1.815127191E0
6.212976667E-1,-1.407353764E0,-1.257032667E0,-7.882689893E-2,1.888647511E0
6.312856667E-1,-4.547755589E0,-7.484990936E0,-1.106154476E0,8.827839369E0
6.412736667E-1,-3.427424392E-1,-3.646561663E0,-2.586258566E-1,3.671753215E0
6.512616667E-1,1.491313056E0,-7.627166569E-1,1.483035153E0,2.237218048E0
6.612496667E-1,9.872225484E-1,6.785956889E-1,2.193732056E0,2.499512113E0
6.712376667E-1,1.546529922E0,4.295052962E0,2.835740255E-1,4.573800277E0
6.812256667E-1,-5.314734574E-1,1.157665084E0,-1.297888917E0,1.818562103E0
6.912136667E-1,-3.127628290E0,-4.727863280E0,5.897226888E-1,5.699344064E0
7.012016667E-1,-4.345486366E0,-7.078817609E0,1.085857329E0,8.376872724E0
7.111896667E-1,-4.778622959E0,-1.037609935E1,-2.013833696E-1,1.142537660E1
7.211776667E-1,-3.443311862E0,-1.255037714E1,-1.233984697E0,1.307253155E1
7.311666667E-1,-4.510691258E-1,-8.194544123E0,-1.694604519E0,8.380077638E0
7.411546667E-1,-3.780891502E-1,1.916351255E0,-7.898806281E-1,2.106956323E0
7.511426667E-1,-4.167562026E-1,5.111002670E0,8.480222708E-1,5.197612509E0
7.611306667E-1,-1.034138853E0,3.648754368E0,1.828190446E-2,3.792517084E0
7.711186667E-1,-1.558984199E0,7.252196324E-1,-5.276330061E-1,1.798547146E0
7.811066667E-1,-8.738331963E-1,3.784434915E-2,-5.012731732E-1,1.008112813E0
7.910946667E-1,-2.716816659E-1,2.253014052E-1,-4.005056208E-1,5.338318116E-1
8.010826667E-1,-2.428781354E-1,8.592834234E-2,-7.419546559E-2,2.681015401E-1
8.110706667E-1,-2.844955467E-1,-2.618967891E-1,1.742556511E-1,4.241375675E-1
8.210586667E-1,-1.706599058E-1,-5.187287199E-1,7.895553768E-2,5.517592458E-1
8.310466667E-1,1.714342234E-1,-3.851005465E-1,2.822158635E-2,4.224790903E-1
8.410346667E-1,4.443036050E-1,-7.541446388E-2,-6.141155183E-2,4.548234970E-1
8.510226667E-1,6.165748572E-1,2.881449401E-2,-1.080122526E-1,6.266270632E-1
8.610106667E-1,6.465672728E-1,2.710418344E-2,-6.369956732E-2,6.502626469E-1
8.709986667E-1,6.741689081E-1,-5.802367508E-2,-1.181285204E-1,6.868950509E-1
8.809866667E-1,8.665664229E-1,-2.869018221E-1,-1.984562534E-1,9.341492950E-1
8.909746667E-1,1.219580958E0,-3.685318762E-1,-2.375326109E-1,1.295999691E0
9.009626667E-1,1.418524285E0,-3.667092991E-1,-1.905065252E-1,1.477490979E0
9.109506667E-1,1.485735105E0,-2.752904212E-1,-2.269514894E-1,1.527972708E0
9.209386667E-1,1.709626600E0,5.766487824E0,8.507657844E-1,6.074455313E0
9.309266667E-1,2.295644493E0,1.448700069E1,-3.185120161E-1,1.467121749E1
9.409146667E-1,1.306900353E0,1.054416470E1,-4.672976636E0,1.160707148E1
9.509026667E-1,8.464688849E-1,9.635752974E0,-5.760896131E-2,9.673032809E0
9.608906667E-1,8.478639574E-1,7.674195140E0,1.703943545E0,7.906678692E0
9.708786667E-1,1.041617807E0,6.914451208E0,2.925202654E-1,6.998583518E0
9.808666667E-1,7.841309879E-1,8.208787941E0,-2.026479615E0,8.491506374E0
9.908546667E-1,1.456205350E0,8.217509063E0,-1.790855389E0,8.535522963E0
1.000842667E0,1.321691908E0,8.556855147E0,-2.202785885E0,8.934142665E0
1.010830667E0,1.507526508E0,5.229732138E0,-8.506002351E-1,5.508743520E0
1.020818667E0,1.165827943E0,4.249291483E0,-8.801902161E-1,4.493369305E0
1.030806667E0,1.841736106E0,4.174718433E0,-7.619700406E-1,4.626106810E0
1.040794667E0,9.671456219E-1,5.079264568E0,-2.542900878E0,5.762000007E0
1.050782667E0,-9.397380410E-1,-6.626265922E0,-2.263026824E0,7.064828240E0
1.060770667E0,5.991436057E0,-3.016576450E1,4.384334682E0,3.106594670E1
1.070758667E0,8.576819880E0,-2.497899653E1,3.935267351E0,2.670203056E1
1.080746667E0,-4.990734215E0,-6.285410087E0,-2.565896223E0,8.426009220E0
1.090734667E0,-9.032737225E0,-7.821880605E0,-4.467679725E0,1.275665787E1
1.100722667E0,-5.902644918E0,-1.045674181E1,-1.971994529E0,1.216854259E1
1.110710667E0,-4.230106183E0,-7.424641238E0,-5.181843442E-1,8.560818352E0
1.120698667E0,4.760832220E-1,-3.518266150E0,2.778785158E0,4.508491864E0
1.130686667E0,9.408813179E0,-1.327015652E0,2.525573823E0,9.831849221E0
1.140674667E0,7.543292938E0,-2.580085661E0,6.940638401E-1,8.002489299E0
1.150662667E0,3.625358489E0,-2.521404174E0,3.305939716E-1,4.428317463E0
1.160650667E0,-3.500903428E-2,-3.408325047E0,-7.751427211E-2,3.409386121E0
1.170638667E0,-3.135416781E0,-4.171784300E0,-2.907387650E-1,5.226772586E0
1.180627667E0,-4.519830456E0,-4.846889786E0,-3.126832923E-1,6.634680007E0
1.190615667E0,-4.379245850E0,-4.473899993E0,-9.439054978E-1,6.331234710E0
1.200603667E0,-3.636785995E0,-2.795692382E0,-1.026984492E0,4.700723925E0
1.210591667E0,-1.697758799E0,1.794480078E0,-9.792296970E-1,2.657335976E0
1.220579667E0,1.295687879E0,6.938297907E0,-1.889662809E0,7.306819449E0
1.230567667E0,3.077239324E0,7.207202584E0,-1.983809997E0,8.083852612E0
1.240555667E0,4.419160114E0,2.148014431E0,-2.573350838E0,5.546627502E0
1.250543667E0,3.879281430E0,-5.525899458E-1,-1.786685740E0,4.306556164E0
1.260531667E0,2.293353116E0,-1.093036979E0,-8.312401772E-1,2.673042944E0
1.270519667E0,2.301295096E0,-1.073030730E0,-1.161016781E0,2.792008960E0
1.280507667E0,2.974943456E0,-1.592127240E0,-2.244531496E0,4.052539864E0
1.290495667E0,3.220000556E0,-1.921530719E0,-3.387508374E0,5.053305539E0
1.300483667E0,3.501527910E0,-1.640811743E0,-3.700403994E0,5.352191196E0
1.310471667E0,3.474968103E0,-1.223652667E0,-3.275435377E0,4.929625348E0
1.320459667E0,3.107116842E0,-8.717420858E-1,-3.296184806E0,4.612910536E0
1.330447667E0,2.990291228E0,-7.499492615E-1,-3.628153458E0,4.761067426E0
1.340435667E0,3.281821413E0,-5.943700558E-1,-3.427186995E0,4.782179237E0
1.350423667E0,3.757677179E0,-1.301724690E-1,-2.774376943E0,4.672713352E0
1.360411667E0,4.191765698E0,5.578857690E-1,-2.516987772E0,4.921114065E0
1.370399667E0,4.343600639E0,1.314052375E0,-2.699106905E0,5.280035818E0
1.380387667E0,3.980673319E0,2.114922699E0,-2.719130110E0,5.264249866E0
1.390375667E0,2.887498346E0,2.744317576E0,-1.825795573E0,4.382060603E0
1.400363667E0,8.817373163E-1,2.724649297E0,-7.969389483E-2,2.864877939E0
1.410351667E0,-1.287069814E0,2.215865521E0,1.614729799E0,3.028854740E0
1.420339667E0,-3.980497903E0,1.732551048E0,2.703307545E0,5.114095068E0
1.430327667E0,-8.744928499E0,1.528567421E0,2.565462359E0,9.240773233E0
1.440315667E0,-1.380075977E1,1.246184328E0,2.330078454E0,1.405144872E1
1.450303667E0,-1.352070620E1,2.037259980E0,1.544902642E0,1.376032880E1
1.460291667E0,-6.916767290E0,4.110013145E0,2.479429936E-1,8.049556107E0
1.470279667E0,-3.067908922E0,5.706602980E0,-5.811040391E-1,6.505003046E0
1.480267667E0,-1.565055509E0,6.878980243E0,-1.369480032E0,7.186462516E0
1.490255667E0,-5.425618248E-1,7.843243992E0,-2.620206916E0,8.287118554E0
1.500243667E0,2.493505281E-1,7.924494562E0,-3.462467340E0,8.651501016E0
1.510231667E0,6.545995930E-1,7.588567929E0,-3.321137214E0,8.309321046E0
1.520219667E0,7.115006758E-1,8.762418691E0,-4.334389813E0,9.801691159E0
1.530207625E0,1.754596951E0,1.010467277E1,-5.399613633E0,1.159046374E1
1.540195625E0,1.444218997E0,1.034783742E1,-5.493930391E0,1.180452366E1
1.550183625E0,1.403072579E0,8.992657485E0,-3.134468655E0,9.626078903E0
1.560171625E0,1.379870973E0,5.384099801E0,1.130272633E0,5.671868369E0
1.570159625E0,-3.113963566E-1,2.744390666E-2,4.595292575E0,4.605913016E0
1.580147625E0,-4.481493772E0,-7.551994180E0,8.362546324E0,1.212635904E1
1.590135625E0,-8.339974317E0,-1.802487723E1,1.364499111E1,2.409641370E1
1.600124625E0,-1.091654405E0,-2.705612400E1,8.193048406E0,2.829048599E1
1.610111625E0,1.042926341E1,-2.083817850E1,5.398335432E0,2.391947416E1
1.620100625E0,7.863846656E0,-6.395643550E0,-2.533319338E0,1.044806430E1
1.630088625E0,3.650850595E0,3.570892845E0,-1.136697787E1,1.246146748E1
1.640076625E0,3.932913993E-1,3.584066037E0,1.028921207E1,1.090266447E1
1.650064625E0,-4.107382117E-1,-1.133851129E1,9.796910423E0,1.499033015E1
1.660052625E0,6.572935514E-1,-3.294036656E1,7.622949557E0,3.381729061E1
1.670040625E0,6.648796998E0,-4.027133190E1,3.758689039E0,4.098919879E1
1.680028625E0,6.565907453E0,-2.919415606E1,7.157310632E-1,2.993195884E1
1.690016625E0,3.921700349E0,-1.691375774E1,-2.193893147E0,1.750051718E1
1.700004625E0,2.879333002E0,-1.053011618E1,-2.936706174E0,1.130478432E1
1.709992625E0,3.233127848E0,-7.746818728E0,-2.997095048E0,8.913410953E0
1.719980625E0,4.322607965E0,-6.618873287E0,-2.721686513E0,8.360741635E0
1.729968625E0,5.076167298E0,-5.474205979E0,-1.882598203E0,7.699258505E0
1.739956625E0,4.205571559E0,-3.219461151E0,2.670739138E-1,5.303120847E0
1.749944625E0,9.975326514E-1,-8.402378726E-1,1.929519185E0,2.328973026E0
1.759932625E0,-3.069432707E0,1.477102568E0,4.118622000E0,5.344744738E0
1.769920625E0,-5.268112092E0,4.201009269E0,7.537133482E0,1.010988947E1
1.779908625E0,-5.987971582E0,4.574533498E0,1.190047783E1,1.408557890E1
1.789896625E0,-5.489353191E0,3.162252578E0,1.540512464E1,1.665685160E1
1.799884625E0,-4.394223493E0,-9.899622613E-1,1.196122338E1,1.278123978E1
1.809872625E0,-5.254157127E0,-4.832728999E0,8.424292336E0,1.104219806E1
1.819860625E0,-8.159212323E0,-2.306445909E0,2.711399506E0,8.901916970E0
1.829848625E0,-8.788039436E0,4.261388787E0,-4.573878025E0,1.078468505E1
1.839836625E0,-7.729905072E0,1.040279072E1,-6.812920740E0,1.464190480E1
1.849824625E0,-6.994368027E0,1.381029307E1,-6.424106627E0,1.676050490E1
1.859812625E0,-4.928636200E0,1.540407331E1,-7.638599630E0,1.788645112E1
1.869800625E0,-3.503666822E0,1.600806964E1,-6.629597080E0,1.767726032E1
1.879788625E0,-3.457068314E0,1.561917718E1,-5.632809364E0,1.695991033E1
1.889776625E0,-3.469506511E0,1.394070469E1,-4.126125147E0,1.494675989E1
1.899764625E0,-2.417960643E0,1.073625158E1,-3.003060377E0,1.140754151E1
1.909752625E0,1.114137241E-1,8.464191982E0,-2.202675957E0,8.746813151E0
1.919740625E0,2.894168557E0,7.923545558E0,-1.085825608E0,8.505163320E0
1.929728625E0,4.641358986E0,8.841978831E0,-5.492804217E-1,1.000122552E1
1.939716625E0,4.843712994E0,1.036405409E1,-1.467354675E0,1.153378960E1
1.949704625E0,3.911994263E0,1.117887996E1,-2.786736787E0,1.216704394E1
1.959692625E0,2.173484318E0,1.179210320E1,-3.071840006E0,1.237796158E1
1.969680625E0,2.273492463E-1,1.182739465E1,-2.395415534E0,1.206967139E1
1.979668625E0,-1.127621944E0,1.114836217E1,-1.238037256E0,1.127343101E1
1.989656625E0,-1.920739152E0,1.002862973E1,-5.244567986E-1,1.022436835E1
1.999644625E0,-2.241538599E0,9.176168840E0,-5.707497896E-1,9.463209032E0
2.009632625E0,-1.969756946E0,8.899938771E0,-9.419626142E-1,9.163849962E0
2.019620625E0,-1.863890036E0,8.796479892E0,-1.314919956E0,9.087417622E0
2.029609625E0,-2.109478064E0,8.597840620E0,-1.601856569E0,8.996594106E0
2.039597625E0,-2.493169724E0,8.475002899E0,-1.664599531E0,8.989575129E0
2.049585625E0,-2.821648465E0,8.474418762E0,-1.765711339E0,9.104680661E0
2.059573625E0,-3.066824556E0,8.337188703E0,-2.174201332E0,9.145560659E0
2.069561625E0,-3.338633253E0,8.064700853E0,-2.766848068E0,9.156490598E0
2.079549625E0,-3.465789143E0,7.935670930E0,-3.063635193E0,9.185446537E0
2.089537625E0,-3.778345917E0,7.971169376E0,-3.077386382E0,9.342684091E0
2.099525625E0,-4.252487278E0,8.001764932E0,-2.746031980E0,9.468504724E0
2.109513625E0,-4.900768078E0,7.908245149E0,-1.711611584E0,9.459782413E0
2.119501625E0,-5.419222856E0,7.802922177E0,-1.132026213E0,9.567395372E0
2.129489625E0,-5.132694086E0,6.695844864E0,1.299605075E0,8.536267356E0
2.139477625E0,-4.529236872E0,3.879406561E0,5.415457249E0,8.055492482E0
2.149465625E0,-3.939070380E0,-3.430374312E-1,1.464913462E0,4.216624431E0
2.159453625E0,-9.349042940E-1,-5.443438514E0,-5.627048103E0,7.884715546E0
2.169441625E0,4.991833491E0,-1.706135199E1,3.589828468E0,1.813546254E1
2.179429625E0,9.493584942E0,-3.363077772E1,1.844395887E1,3.951375689E1
2.189417625E0,8.986086384E0,-4.552356763E1,1.455129433E1,4.863008457E1
2.199405625E0,9.443750877E0,-4.446929126E1,8.702619216E0,4.628647618E1
2.209393625E0,2.202368978E0,-3.048727248E1,1.020543550E1,3.222538016E1
2.219381625E0,-7.581694235E-1,-2.212333335E1,2.763261386E0,2.230812213E1
2.229369625E0,3.287193543E0,-2.171931882E1,8.259199710E0,2.346803850E1
2.239357625E0,8.415328555E0,-1.966960076E1,1.018545439E1,2.369502965E1
2.249345625E0,9.954950137E0,-1.606012506E1,3.950379480E0,1.930373403E1
2.259333625E0,9.928714850E0,-1.460591201E1,-9.665780765E-1,1.768746215E1
2.269321625E0,8.782601525E0,-1.493895772E1,-2.509791311E0,1.751015704E1
2.279309625E0,6.889017574E0,-1.536580212E1,-3.070292832E0,1.711704227E1
2.289297625E0,4.190528719E0,-1.649993742E1,-2.391050003E0,1.719085763E1
2.299285625E0,2.638190612E-1,-1.556365786E1,4.761545581E-1,1.557317468E1
2.309273625E0,-2.555458943E0,-1.141514256E1,3.209674666E0,1.213003963E1
2.319261625E0,-2.613105180E0,-6.463082997E0,1.711539078E0,7.178379101E0
2.329249625E0,-1.820043520E0,-1.960585442E0,4.786062956E-1,2.717630894E0
2.339237625E0,-3.057357914E0,2.283051199E0,-1.141174182E0,3.982717502E0
2.349225625E0,-3.826898856E0,5.711774257E0,-5.448839003E-1,6.896841197E0
2.359213625E0,-3.930658283E0,6.077176119E0,3.560028133E0,8.065726528E0
2.369201625E0,-4.668821312E0,5.948342078E0,3.859593270E0,8.489824859E0
2.379189625E0,-3.071577758E0,7.290140076E0,4.739455969E0,9.221885660E0
2.389177625E0,3.173696163E-1,8.469370860E0,7.245742752E0,1.115041498E1
2.399165625E0,1.104801577E0,7.218157927E0,9.043069255E0,1.162323070E1
2.409153625E0,-3.166884157E0,5.358909411E0,5.568142667E0,8.351723062E0
2.419141625E0,-6.560508719E0,6.565662455E0,-9.126971537E-1,9.326371975E0
2.429129625E0,-6.762702513E0,9.412019792E0,-4.241113567E0,1.234128462E1
2.439118625E0,-5.596232107E0,1.164964046E1,-5.264989094E0,1.395535907E1
2.449106625E0,-4.335708944E0,1.242437432E1,-6.146665599E0,1.452394393E1
2.459094625E0,-3.243472742E0,1.191480819E1,-6.445202211E0,1.392922830E1
2.469082625E0,-2.285092169E0,1.088117015E1,-6.578211164E0,1.291876047E1
2.479070625E0,-3.065907421E0,9.741558926E0,-5.461055006E0,1.158105696E1
2.489058625E0,-4.003166973E0,8.732896684E0,-4.161201425E0,1.046921332E1
2.499046625E0,-3.915037154E0,8.374840679E0,-3.511108573E0,9.889052317E0
2.509034625E0,-3.149960853E0,8.854079059E0,-2.359124059E0,9.689294901E0
2.519022625E0,-1.951298017E0,9.883757948E0,-1.272829066E0,1.015462106E1
2.529011292E0,-8.980796993E-1,1.083128872E1,-8.154275519E-1,1.089900383E1
2.538999292E0,-4.616976097E-1,1.115894680E1,-6.419728231E-1,1.118692932E1
2.548987292E0,-3.632714286E-1,1.089785225E1,-7.520998675E-1,1.092981263E1
2.558975292E0,-4.952631126E-1,1.037722436E1,-1.002771318E0,1.043731868E1
2.568963292E0,-8.528786758E-1,9.651417664E0,-9.038737053E-1,9.731097196E0
2.578951292E0,-1.461382621E0,9.036637902E0,-7.993722671E-1,9.188876959E0
2.588939292E0,-1.935759187E0,8.746245292E0,-7.211265814E-1,8.986878985E0
2.598927292E0,-1.802645569E0,8.665878822E0,-4.539575042E-1,8.863016654E0
2.608915292E0,-1.414270581E0,8.808850846E0,-1.679636085E-1,8.923240794E0
2.618903292E0,-1.116449230E0,9.075719522E0,-1.410946293E-1,9.145220141E0
2.628891292E0,-8.122576301E-1,9.411007054E0,-5.120795587E-1,9.459864782E0
2.638879292E0,-5.408003511E-1,9.765276986E0,-1.241886624E0,9.858771832E0
2.648867292E0,-4.368912359E-1,9.980598364E0,-2.078218118E0,1.020402902E1
2.658855292E0,-5.312644194E-1,1.005306525E1,-3.004078377E0,1.050575317E1
2.668843292E0,-7.984577626E-1,1.002242701E1,-3.680646837E0,1.070671467E1
2.678831292E0,-1.056792428E0,9.933628850E0,-3.893687215E0,1.072168795E1
2.688819292E0,-1.218910136E0,9.739402472E0,-3.443786363E0,1.040198861E1
2.698807292E0,-1.442686588E0,9.457680699E0,-2.326812492E0,9.845969996E0
2.708795292E0,-1.790886818E0,8.701274357E0,-1.777550342E0,9.059753653E0
2.718783292E0,-2.470886570E0,7.882526756E0,-2.361327436E0,8.591587499E0
2.728771292E0,-3.622180527E0,5.429218086E0,2.013061863E0,6.830008702E0
2.738759292E0,-3.313212191E0,-5.839836466E-1,4.117204635E0,5.316933884E0
2.748747292E0,2.163497566E-1,-5.725814592E0,-2.002333392E0,6.069686892E0
2.758735292E0,3.356815170E0,-8.511507651E0,3.348899209E-1,9.155660644E0
2.768723292E0,8.185635890E0,-1.483007320E1,7.228040307E0,1.841684753E1
2.778711292E0,1.341587030E1,-2.394503807E1,1.043954574E0,2.746707602E1
2.788699292E0,1.367902191E1,-4.012647532E1,5.150704679E0,4.270573053E1
2.798687292E0,2.352144822E-2,-5.376069936E1,1.524933962E1,5.588162227E1
2.808675292E0,-1.274760606E1,-4.691603760E1,9.421143202E0,4.952144973E1
2.818663292E0,-1.221119068E0,-3.441954372E1,8.666804436E0,3.551492110E1
2.828651292E0,9.300802826E0,-2.508294833E1,1.140146943E1,2.908010893E1
2.838639292E0,1.234215896E1,-2.052205464E1,9.413738288E0,2.573134436E1
2.848627292E0,9.819381273E0,-1.812092360E1,4.957670549E0,2.119826922E1
2.858616292E0,7.653678430E0,-1.759034725E1,6.301339656E-1,1.919364943E1
2.868604292E0,5.811627159E0,-1.671026411E1,-2.040556202E0,1.780931797E1
2.878592292E0,2.816907250E0,-1.505797077E1,-3.826147782E0,1.578977065E1
2.888580292E0,-1.203417500E0,-1.161037407E1,-4.313292912E-1,1.168054129E1
2.898568292E0,-3.504995601E0,-8.375147658E0,1.620043017E0,9.222398378E0
2.908556292E0,-2.921372436E0,-4.303689884E0,2.343141865E0,5.704952000E0
2.918544292E0,7.457994926E-1,-9.131976753E-1,1.142813741E0,1.642001865E0
2.928532292E0,-9.246283972E-1,1.955621740E0,1.096648219E0,2.425289958E0
2.938520292E0,-2.560666765E0,4.510656175E0,-2.386832845E0,5.709641358E0
2.948508292E0,-3.066279596E0,4.459241608E0,7.738146722E-2,5.412291028E0
2.958496292E0,-2.772063199E0,4.846726649E0,5.686110243E0,7.969124374E0
2.968484292E0,3.852508199E-1,7.655878152E0,1.020733468E1,1.276520935E1
2.978472292E0,2.724465987E0,9.177127783E0,1.466226279E1,1.751069215E1
2.988460292E0,2.916830903E-1,7.295059923E0,1.114616830E1,1.332441541E1
2.998448292E0,-5.150945585E0,6.673375769E0,1.729233338E0,8.605604715E0
3.008436292E0,-7.805699605E0,8.880867493E0,-6.037922006E0,1.327611599E1
3.018424292E0,-8.395767864E0,1.085849932E1,-9.399675150E0,1.663579930E1
3.028412292E0,-7.219137336E0,1.177785704E1,-8.724549783E0,1.633865445E1
3.038400292E0,-5.254543043E0,1.195844712E1,-6.435684698E0,1.456134327E1
3.048388292E0,-4.332853749E0,1.159229916E1,-3.806040961E0,1.294762408E1
3.058376292E0,-4.457638886E0,1.038414044E1,-1.785857189E0,1.144072564E1
3.068364292E0,-5.331649107E0,9.619826912E0,-1.222308684E0,1.106623651E1
3.078352292E0,-5.064024385E0,9.008249670E0,-1.208222596E0,1.040445611E1
3.088340292E0,-3.588792341E0,8.597604977E0,-2.023200058E0,9.533707584E0
3.098328292E0,-2.139734920E0,8.760524778E0,-2.964432501E0,9.492793054E0
3.108316292E0,-8.848294701E-1,9.283564650E0,-3.574306449E0,9.987149863E0
3.118304292E0,-8.376019478E-2,9.886699097E0,-3.699800561E0,1.055662631E1
3.128292292E0,-8.109064847E-2,1.035235966E1,-3.328524002E0,1.087460336E1
3.138280292E0,-5.976697858E-1,1.053845899E1,-2.761624750E0,1.091067818E1
3.148268292E0,-1.176509052E0,1.043368741E1,-2.260442939E0,1.074037284E1
3.158256292E0,-1.503675678E0,1.004858979E1,-1.850659249E0,1.032763946E1
3.168244292E0,-1.550996756E0,9.622019618E0,-1.418360416E0,9.848888198E0
3.178232292E0,-1.204776685E0,9.473455317E0,-9.491010413E-1,9.596803389E0
3.188220292E0,-8.030855414E-1,9.611274775E0,-6.404928929E-1,9.666011604E0
3.198208292E0,-6.324075092E-1,9.784313766E0,-5.684575349E-1,9.821195401E0
3.208196292E0,-8.220616566E-1,9.909738296E0,-6.364948592E-1,9.964126865E0
3.218184292E0,-1.045777882E0,9.848224418E0,-1.071528873E0,9.961392960E0
3.228172292E0,-1.438331289E0,9.675429840E0,-1.702287029E0,9.928772362E0
3.238160292E0,-1.924579603E0,9.591352726E0,-2.308838297E0,1.005130778E1
3.248148292E0,-2.178681177E0,9.346152661E0,-2.902761041E0,1.002612801E1
3.258136292E0,-2.080044934E0,8.994035089E0,-3.281485491E0,9.797316017E0
3.268125292E0,-1.833748517E0,8.641600013E0,-3.300490696E0,9.430436005E0
3.278113292E0,-1.529512624E0,8.404965534E0,-3.035098734E0,9.066128105E0
3.288101292E0,-1.372559615E0,8.375872128E0,-2.507187839E0,8.850149414E0
3.298089292E0,-1.303973676E0,8.588380995E0,-2.142194259E0,8.947045976E0
3.308077292E0,-1.130253483E0,8.645976654E0,-1.789152095E0,8.901205000E0
3.318065292E0,-1.048707190E0,8.487383793E0,-1.082446209E0,8.620160104E0
3.328053292E0,-1.611693778E0,6.912634478E0,2.330376516E0,7.470791589E0
3.338041292E0,-1.778356673E0,8.383293414E-1,7.378332460E0,7.635780146E0
3.348029292E0,2.194162996E0,-5.830209026E0,-4.755031782E0,7.836837104E0
3.358017292E0,6.916372603E0,-1.417819403E1,-2.479645991E0,1.596890854E1
3.368005292E0,1.433488771E1,-3.314665867E1,2.738073569E1,4.531991475E1
3.377993292E0,1.818730119E1,-4.958082895E1,1.006767627E1,5.376239047E1
3.387981292E0,8.855354337E0,-5.621902319E1,2.677640314E0,5.697513165E1
3.397969292E0,-5.467801523E0,-4.471379375E1,7.863243808E0,4.572800901E1
3.407957292E0,-3.072287902E0,-3.611627239E1,5.877521186E0,3.672014896E1
3.417945292E0,6.017637430E0,-3.016641705E1,5.567856739E0,3.126060950E1
3.427933292E0,1.069354937E1,-2.519908573E1,5.290380628E0,2.788071102E1
3.437921292E0,1.164633679E1,-2.010705435E1,4.645829183E0,2.369629769E1
3.447909292E0,1.051751894E1,-1.640413781E1,6.950822058E-1,1.949864306E1
3.457897292E0,8.905517015E0,-1.388891941E1,-2.681250970E0,1.671524521E1
3.467885292E0,7.156288539E0,-1.087289984E1,-2.710202581E0,1.329577432E1
3.477873292E0,4.611084150E0,-7.153311721E0,-5.141078116E-1,8.526210909E0
3.487861292E0,1.483072283E0,-4.606613077E0,2.259995481E0,5.341157834E0
3.497849292E0,-1.984754615E0,-1.541169925E0,1.641845530E0,3.001684921E0
3.507837292E0,-3.520063876E0,2.448843736E0,9.718942188E-2,4.289187699E0
3.517825292E0,-4.980799795E0,6.907925715E0,1.003840555E0,8.575284260E0
3.527813292E0,-7.298709755E0,8.050431892E0,1.034263691E0,1.091559981E1
3.537800167E0,-9.832677841E0,6.800601826E0,-8.086056054E-2,1.195559606E1
3.547788167E0,-8.729899986E0,5.917613790E0,2.644975137E0,1.087314123E1
3.557776167E0,-4.541549939E0,6.275404916E0,4.298812137E0,8.859241982E0
3.567764167E0,-2.433105663E0,8.067895771E0,3.983265975E0,9.320802174E0
3.577752167E0,-2.861886372E0,9.424801220E0,2.077483562E0,1.006643977E1
3.587740167E0,-4.491625242E0,8.490665250E0,6.081383483E-1,9.624755891E0
3.597728167E0,-5.492014259E0,8.029029914E0,7.583619431E-2,9.727964489E0
3.607716167E0,-4.911254182E0,9.134283480E0,1.879679857E0,1.053986474E1
3.617704167E0,-3.092537395E0,1.085752868E1,3.535711902E0,1.183008771E1
3.627692167E0,-2.460506885E0,1.206183759E1,1.970222969E0,1.246690815E1
3.637680167E0,-2.108432289E0,1.235034155E1,-1.050172210E0,1.257295848E1
3.647668167E0,-7.773037058E-1,1.170527672E1,-3.005990417E0,1.211006534E1
3.657656167E0,3.087952593E-1,1.052183419E1,-3.729438928E0,1.116750034E1
3.667644167E0,-8.559510952E-1,9.036836123E0,-3.697935299E0,9.801621543E0
3.677632167E0,-2.361030544E0,8.178805173E0,-3.629343951E0,9.254158892E0
3.687620167E0,-3.142953258E0,7.776650053E0,-4.173256629E0,9.368591789E0
3.697609167E0,-3.579008780E0,7.655970538E0,-4.712863710E0,9.676480407E0
3.707597167E0,-3.856150722E0,7.747767731E0,-4.311523399E0,9.668869490E0
3.717585167E0,-3.846663030E0,8.306340548E0,-3.568860353E0,9.824910889E0
3.727573167E0,-3.559147543E0,9.111134938E0,-3.192136527E0,1.028931712E1
3.737561167E0,-3.174025362E0,9.778115133E0,-2.961706822E0,1.069848961E1
3.747549167E0,-2.484241025E0,9.837267905E0,-2.521666714E0,1.045476429E1
3.757537167E0,-1.642349414E0,9.458874700E0,-1.885187935E0,9.783739354E0
3.767525167E0,-1.243704816E0,9.261727054E0,-1.379457429E0,9.446125792E0
3.777513167E0,-1.552621259E0,9.271549206E0,-1.338551039E0,9.495471360E0
3.787501167E0,-1.732023337E0,9.411043307E0,-1.828315576E0,9.742195790E0
3.797489167E0,-1.511133656E0,9.634070730E0,-2.294377548E0,1.001813416E1
3.807477167E0,-9.838744327E-1,9.876234920E0,-2.369728569E0,1.020409911E1
3.817465167E0,-4.507087912E-1,1.002466064E1,-2.315103881E0,1.029838169E1
3.827453167E0,-1.723797181E-1,9.950020934E0,-2.360567883E0,1.022765428E1
3.837441167E0,-1.372492079E-1,9.696136000E0,-2.644022917E0,1.005110680E1
3.847429167E0,-3.424246430E-1,9.312103155E0,-2.795703492E0,9.728744926E0
3.857417167E0,-6.385966408E-1,9.016658551E0,-2.896236425E0,9.491897731E0
3.867405167E0,-1.008250598E0,8.913756911E0,-3.297137902E0,9.557340105E0
3.877393167E0,-1.417500145E0,8.928822847E0,-3.603245489E0,9.732243428E0
3.887381167E0,-1.716845280E0,8.857613701E0,-4.167685694E0,9.938535216E0
3.897369167E0,-1.942529386E0,8.995582847E0,-4.416917122E0,1.020799138E1
3.907357167E0,-3.118788469E0,7.358685231E0,3.500542070E0,8.725301406E0
3.917345167E0,-9.334619321E-1,2.375554150E-1,1.018332601E1,1.022877863E1
3.927333167E0,5.144328291E0,-4.951232765E0,-5.159075553E0,8.808795606E0
3.937321167E0,7.370477310E0,-1.052089045E1,2.113721681E-1,1.284748029E1
3.947309167E0,1.365202063E1,-2.300877956E1,1.298484982E1,2.973866051E1
3.957297167E0,1.787314198E1,-3.952526460E1,4.084217276E0,4.357036352E1
3.967285167E0,1.370352174E1,-6.021726505E1,1.310006920E1,6.313095383E1
3.977273167E0,-8.059451222E0,-5.742250179E1,1.188156443E1,5.919011775E1
3.987261167E0,-1.809097650E1,-4.142742466E1,-5.102390891E0,4.549229976E1
3.997249167E0,-1.999231005E0,-2.938240366E1,5.320107872E0,2.992701317E1
4.007237167E0,8.901184813E0,-2.277951023E1,1.266370787E1,2.754099988E1
4.017225167E0,1.435744276E1,-1.768980137E1,1.106286185E1,2.532690560E1
4.027213167E0,1.394980646E1,-1.361880377E1,-6.744020659E-1,1.950701757E1
4.037201167E0,1.247288165E1,-1.379119957E1,-4.859240275E0,1.921931784E1
4.047189167E0,1.222261965E1,-1.371705220E1,-4.896945460E0,1.901394296E1
4.057177167E0,1.104861920E1,-9.895424312E0,-4.873294643E-1,1.484011114E1
4.067165167E0,7.157867872E0,-5.579486266E0,5.517701077E0,1.062124120E1
4.077153167E0,3.378366545E0,-3.296621009E0,5.999397626E0,7.633730573E0
4.087141167E0,-1.176969959E0,-1.013364573E0,1.707122092E0,2.307906384E0
4.097129167E0,-5.759962916E0,2.665512312E0,-2.649471061E0,6.877632265E0
4.107117167E0,-8.889138379E0,5.843956999E0,-2.214465698E0,1.086611581E1
4.117105167E0,-9.957387257E0,7.612878898E0,5.473805152E-2,1.253429226E1
4.127094167E0,-1.160659794E1,7.564517162E0,2.398210942E0,1.406010140E1
4.137082167E0,-1.037680336E1,7.965516872E0,3.019668809E0,1.342556914E1
4.147070167E0,-5.513240236E0,8.997465066E0,3.375722142E0,1.107906564E1
4.157058167E0,-2.514763199E0,9.590965641E0,6.214074056E0,1.170151154E1
4.167046167E0,-4.078519456E0,6.843411630E0,8.074379164E0,1.134293624E1
4.177034167E0,-5.431965108E0,3.948734658E0,6.837006006E0,9.583496306E0
4.187022167E0,-4.308731061E0,4.676769724E0,3.584814481E0,7.299878990E0
4.197010167E0,-3.616474814E0,7.247795125E0,8.290321223E-1,8.142279688E0
4.206998167E0,-3.782962001E0,9.869786611E0,-1.601262930E0,1.069053470E1
4.216986167E0,-3.555018531E0,1.189967208E1,-4.595486995E0,1.324231298E1
4.226974167E0,-2.751771899E0,1.289352684E1,-7.000065554E0,1.492702920E1
4.236962167E0,-1.890371784E0,1.252048149E1,-7.639022968E0,1.478819239E1
4.246950167E0,-1.100668472E0,1.094929021E1,-6.693877861E0,1.288046692E1
4.256938167E0,-1.435083892E0,9.125387526E0,-5.082814997E0,1.054358438E1
4.266926167E0,-2.012948573E0,8.395364406E0,-4.015257261E0,9.521365256E0
4.276914167E0,-1.944166314E0,8.521257298E0,-3.625147697E0,9.462203994E0
4.286902167E0,-1.471951317E0,9.114118772E0,-3.455462668E0,9.857688569E0
4.296890167E0,-1.253589534E0,9.664183306E0,-3.354784432E0,1.030643024E1
4.306878167E0,-1.200628524E0,9.939824560E0,-3.125252566E0,1.048850918E1
4.316866167E0,-1.159588379E0,9.948808222E0,-2.528980996E0,1.033049733E1
4.326854167E0,-1.278243734E0,9.771228282E0,-1.564461870E0,9.977893071E0
4.336842167E0,-1.795480244E0,9.685319821E0,-8.210467261E-1,9.884497310E0
4.346830167E0,-2.129948581E0,9.743834077E0,-4.348669298E-1,9.983390843E0
4.356818167E0,-1.606334513E0,9.904610288E0,-6.431675555E-1,1.005461486E1
4.366806167E0,-7.123798777E-1,1.014655755E1,-1.388062338E0,1.026580889E1
4.376794167E0,-5.867007016E-1,1.028766840E1,-2.024816521E0,1.050143899E1
4.386782167E0,-9.302152656E-1,1.037271031E1,-2.152291669E0,1.063441484E1
4.396770167E0,-1.482494578E0,1.026765455E1,-2.297784136E0,1.062555091E1
4.406758167E0,-1.977540467E0,9.849253528E0,-2.468859340E0,1.034474397E1
4.416746167E0,-2.062634996E0,9.473833047E0,-2.442108621E0,9.998593413E0
4.426734167E0,-2.059720598E0,9.297752919E0,-2.301631311E0,9.797354999E0
4.436722167E0,-2.264050525E0,9.332087184E0,-1.826872191E0,9.775031355E0
4.446710167E0,-2.930636472E0,9.508321095E0,-1.021438408E0,1.000200663E1
4.456698167E0,-4.016824022E0,9.759388255E0,-3.618549407E-2,1.055375970E1
4.466686167E0,-5.387247357E0,9.614809417E0,1.119454407E0,1.107791372E1
4.476674167E0,-6.093655912E0,7.470721391E0,5.712013993E0,1.120586562E1
4.486662167E0,-2.524376898E0,2.640462255E0,9.753353344E0,1.041500941E1
4.496650167E0,4.171673495E0,-3.330233728E0,3.065475896E-1,5.346708133E0
4.506638167E0,1.143267485E1,-1.324421242E1,1.195826937E1,2.119234351E1
4.516626167E0,8.612265117E0,-2.757749683E1,2.088214255E1,3.564762712E1
4.526615167E0,3.772094951E0,-3.938044544E1,2.752024207E0,3.965629611E1
4.536603500E0,8.009637623E0,-5.215666310E1,4.911146008E0,5.299614284E1
4.546591500E0,-3.653782682E0,-5.562518465E1,1.138940779E1,5.689665987E1
4.556579500E0,-9.729567456E0,-4.156859516E1,4.855372342E0,4.296728089E1
4.566567500E0,1.228494600E0,-2.526876583E1,9.012269631E-1,2.531465851E1
4.576555500E0,8.679974120E0,-1.968930822E1,3.299120108E0,2.176912957E1
4.586543500E0,1.280601039E1,-1.897163383E1,2.530823454E0,2.302871815E1
4.596531500E0,1.206177561E1,-1.823605176E1,-1.450833513E0,2.191220967E1
4.606519500E0,9.722683529E0,-1.577426755E1,-3.483547137E0,1.885452711E1
4.616507500E0,8.365802053E0,-1.264390803E1,-1.929023341E0,1.528319945E1
4.626495500E0,7.550211949E0,-9.874333405E0,1.364319134E0,1.250478018E1
4.636483500E0,5.614512842E0,-5.884677009E0,2.732019712E0,8.579983080E0
4.646471500E0,4.624177820E0,-2.338378138E0,1.183013422E0,5.315124983E0
4.656459500E0,1.971273859E0,1.016302798E0,-1.282434141E0,2.561919072E0
4.666447500E0,-2.514319687E0,4.420629519E0,-3.674386661E-2,5.085776140E0
4.676435500E0,-5.585786641E0,6.953588376E0,1.117185395E0,8.988965842E0
4.686423500E0,-7.422192425E0,6.607339069E0,3.873539464E0,1.066537285E1
4.696411500E0,-8.059408538E0,6.471233431E0,6.262474383E0,1.208509468E1
4.706399500E0,-6.635201637E0,6.898719859E0,7.305702440E0,1.204124265E1
4.716387500E0,-4.468670243E0,8.294831473E0,7.249245819E0,1.188801110E1
4.726375500E0,-3.894018753E0,8.025630342E0,5.739069645E0,1.060712236E1
4.736363500E0,-3.975683305E0,6.633649786E0,1.954904872E0,7.977030793E0
4.746351500E0,-4.753631082E0,7.515747290E0,-7.372000656E-1,8.923392277E0
4.756339500E0,-3.873128405E0,9.388319272E0,-1.201699296E0,1.022671715E1
4.766327500E0,-1.999375139E0,1.129665224E1,-2.030554247E0,1.165053661E1
4.776315500E0,-7.039033154E-1,1.223250144E1,-3.957973258E0,1.287614553E1
4.786303500E0,-3.677053723E-1,1.173879998E1,-5.583275846E0,1.300413785E1
4.796291500E0,-7.496520768E-1,1.079079441E1,-5.406397573E0,1.209265715E1
4.806279500E0,-1.663200731E0,1.000350308E1,-4.079041613E0,1.093045703E1
4.816267500E0,-2.664660665E0,9.314077175E0,-2.991722626E0,1.013917424E1
4.826255500E0,-2.940396937E0,8.880143607E0,-2.828575369E0,9.772600639E0
4.836243500E0,-2.410527955E0,9.135286862E0,-3.176139715E0,9.967546065E0
4.846231500E0,-1.792277140E0,9.615722167E0,-3.451683613E0,1.037248716E1
4.856219500E0,-1.365673495E0,9.914957521E0,-3.545611823E0,1.061804172E1
4.866207500E0,-1.202582956E0,1.001744635E1,-3.378881977E0,1.064012596E1
4.876195500E0,-1.197382881E0,9.964064777E0,-2.967201743E0,1.046520897E1
4.886183500E0,-1.333910396E0,9.718270050E0,-2.501245606E0,1.012325636E1
4.896171500E0,-1.716276785E0,9.511804281E0,-2.078955306E0,9.886459520E0
4.906159500E0,-2.221019988E0,9.591637486E0,-1.634582704E0,9.980195392E0
4.916147500E0,-2.431157517E0,9.819753156E0,-1.035465878E0,1.016908396E1
4.926136500E0,-2.104201244E0,9.900917187E0,-6.758989531E-1,1.014458789E1
4.936124500E0,-1.615156207E0,9.922441957E0,-6.541883875E-1,1.007430129E1
4.946112500E0,-1.234549099E0,9.942989073E0,-8.320891929E-1,1.005383089E1
4.956100500E0,-1.128119249E0,9.741833745E0,-1.202708087E0,9.880409126E0
4.966088500E0,-1.183444727E0,9.460683829E0,-1.872636448E0,9.716575899E0
4.976076500E0,-1.307820266E0,9.106499265E0,-2.491942101E0,9.531447852E0
4.986064500E0,-1.464925888E0,8.702606353E0,-3.065971740E0,9.342459414E0
4.996052500E0,-1.639965943E0,8.438877046E0,-3.564449506E0,9.306418987E0
5.006040500E0,-1.904823762E0,8.453033155E0,-3.715872803E0,9.428140526E0
5.016028500E0,-2.213519326E0,8.668280858E0,-3.314338072E0,9.540628789E0
5.026016500E0,-2.452938541E0,8.813348524E0,-2.312723772E0,9.436138561E0
5.036004500E0,-3.652163588E0,8.750847636E0,-5.679377174E-1,9.499378215E0
5.045992500E0,-6.049428742E0,6.234912363E0,5.158817106E0,1.010361887E1
5.055980500E0,-4.782925340E0,-5.590335774E-1,3.206007292E0,5.785099490E0
5.065968500E0,2.011326556E0,-5.186793110E0,-1.140491461E1,1.268937881E1
5.075956500E0,6.252209596E0,-1.571769457E1,1.229834811E1,2.091376135E1
5.085944500E0,1.010982300E1,-2.833875519E1,2.276196157E1,3.772797982E1
5.095932500E0,1.528663082E1,-3.757793129E1,-5.930428548E0,4.099941444E1
5.105920500E0,1.051822879E1,-4.883849452E1,-5.796482286E0,5.029344779E1
5.115908500E0,-1.090774457E1,-4.655309391E1,9.052755167E0,4.866335192E1
5.125896500E0,-9.970888478E0,-4.077616646E1,1.231776554E1,4.374747669E1
5.135884500E0,4.783331721E0,-3.291101822E1,8.618325171E0,3.435536219E1
5.145872500E0,1.187354906E1,-2.409298666E1,8.703659436E0,2.823485189E1
5.155860500E0,1.313618161E1,-1.995524192E1,8.958089331E0,2.551506049E1
5.165848500E0,1.188036458E1,-1.806724382E1,3.614861568E0,2.192340270E1
5.175836500E0,1.057994031E1,-1.482008382E1,3.174675572E-1,1.821183151E1
5.185824500E0,8.956508828E0,-1.133996958E1,9.262433251E-1,1.448005136E1
5.195812500E0,7.577852907E0,-7.828958074E0,1.464566723E0,1.099369796E1
5.205800500E0,5.659523538E0,-3.757286877E0,1.651741943E0,6.991113130E0
5.215788500E0,3.743162343E0,-6.982265460E-1,-5.758327011E-1,3.851021674E0
5.225776500E0,-1.285609471E0,1.847909011E0,-2.667977498E0,3.490796952E0
5.235764500E0,-4.884280976E0,4.334905829E0,-5.112679067E0,8.293798674E0
5.245752500E0,-9.332549114E0,6.314919814E0,-2.204390945E0,1.148189987E1
5.255740500E0,-1.038701026E1,5.683708792E0,4.298471244E0,1.259648295E1
5.265728500E0,-9.984744040E0,4.750545214E0,7.425717711E0,1.331931218E1
5.275716500E0,-6.775164099E0,6.046915024E0,8.139943408E0,1.219535602E1
5.285704500E0,-4.259491950E0,6.119378398E0,7.967013760E0,1.091161637E1
5.295692500E0,-4.751358562E0,4.286462232E0,2.246865705E0,6.782150997E0
5.305680500E0,-5.911526839E0,7.338143962E0,-3.177733666E0,9.944470706E0
5.315668500E0,-5.204895505E0,1.084229084E1,-6.052518411E0,1.346399595E1
5.325657500E0,-3.564111244E0,1.255286337E1,-7.791935844E0,1.519840558E1
5.335645500E0,-2.144089780E0,1.261898018E1,-6.640320289E0,1.441976544E1
5.345633500E0,-9.412230876E-1,1.224688443E1,-3.286711147E0,1.271513072E1
5.355621500E0,-5.503384754E-1,1.144737943E1,-1.226142557E0,1.152600511E1
5.365609500E0,-1.162235999E0,9.870789993E0,-1.059267993E0,9.995265693E0
5.375597500E0,-1.420408550E0,8.824049513E0,-1.409117576E0,9.048039711E0
5.385585500E0,-1.259863012E-1,8.272762327E0,-1.961400543E0,8.503032469E0
5.395573500E0,1.745429248E0,8.453681611E0,-2.397221739E0,8.958678927E0
5.405561500E0,2.894082896E0,8.921652991E0,-2.602870506E0,9.733783579E0
5.415549500E0,2.724462186E0,9.559357347E0,-2.548991337E0,1.026164528E1
5.425537500E0,1.323199321E0,1.026934089E1,-2.140870303E0,1.057324663E1
5.435525500E0,-7.289274980E-1,1.057847499E1,-1.405161497E0,1.069625857E1
5.445513500E0,-2.420907201E0,1.042529315E1,-1.025963568E0,1.075175010E1
5.455501500E0,-3.551641764E0,1.017517733E1,-1.140170215E0,1.083736043E1
5.465489500E0,-4.384412450E0,1.008379938E1,-8.274120051E-1,1.102681700E1
5.475477500E0,-4.243317382E0,9.998778527E0,-4.737579305E-1,1.087224728E1
5.485465500E0,-3.601144584E0,9.909990896E0,-5.078882745E-1,1.055623571E1
5.495453500E0,-3.114576720E0,9.790348093E0,-7.045658049E-1,1.029795693E1
5.505441500E0,-2.588829002E0,9.498732246E0,-1.150752798E0,9.912223861E0
5.515429500E0,-2.226174455E0,9.055909740E0,-1.648178650E0,9.470049989E0
5.525417500E0,-2.127345693E0,8.625652317E0,-1.987753944E0,9.103770830E0
5.535406000E0,-2.153011315E0,8.260893064E0,-2.174674226E0,8.809484657E0
5.545394000E0,-2.466074311E0,7.994188694E0,-2.364348254E0,8.693602133E0
5.555382000E0,-2.905368314E0,7.831870573E0,-2.634985169E0,8.759138573E0
5.565370000E0,-3.300487772E0,7.814635320E0,-2.896852429E0,8.964011307E0
5.575358000E0,-3.581551149E0,7.969336274E0,-2.910715885E0,9.209239721E0
5.585346000E0,-3.852873065E0,8.371129451E0,-2.319862345E0,9.502746995E0
5.595334000E0,-4.353478341E0,8.713435396E0,-1.039676751E0,9.795797967E0
5.605322000E0,-5.222491531E0,8.616765718E0,-1.195702976E-1,1.007657513E1
5.615310000E0,-7.021392689E0,7.442572310E0,1.045385680E0,1.028516743E1
5.625298000E0,-6.020280957E0,1.167259195E0,4.909056798E0,7.855260370E0
5.635286000E0,2.098788769E0,-5.945161192E0,-3.819112704E0,7.371260255E0
5.645274000E0,1.192172076E1,-1.525791982E1,1.239571594E1,2.299098338E1
5.655262000E0,1.587840413E1,-2.907077981E1,2.293301602E1,4.028842489E1
5.665250000E0,2.079531841E1,-3.791148921E1,-1.149727723E1,4.474274987E1
5.675238000E0,1.737117957E1,-4.602972600E1,-6.143420395E0,4.958059267E1
5.685226000E0,-1.075176074E1,-4.777852530E1,9.136161021E0,4.981824241E1
5.695214000E0,-1.150421202E1,-4.623186191E1,3.600514547E0,4.777756435E1
5.705202000E0,4.475665267E0,-3.382481406E1,6.547364763E0,3.474215899E1
5.715190000E0,1.119753492E1,-2.347310462E1,8.842838371E0,2.746938694E1
5.725178000E0,1.270404080E1,-1.698300397E1,6.653739064E0,2.222807504E1
5.735167000E0,1.116520683E1,-1.456901491E1,3.710487517E0,1.872660558E1
5.745155000E0,8.750038966E0,-1.283686732E1,4.751944453E-1,1.554265596E1
5.755143000E0,8.047994188E0,-9.573997021E0,6.775611703E-1,1.252560252E1
5.765131000E0,7.164603279E0,-4.742133409E0,2.327481121E0,8.901490762E0
5.775119000E0,4.478393870E0,-1.305082746E0,1.531913198E0,4.909787234E0
5.785107000E0,-1.143289704E0,5.243163192E-1,-1.837533712E0,2.226779983E0
5.795095000E0,-5.141975371E0,3.423436006E0,-3.885162560E0,7.297555270E0
5.805083000E0,-6.567680329E0,6.579054333E0,-3.419936448E0,9.905268605E0
5.815071000E0,-6.951140732E0,8.031491007E0,3.990315378E-2,1.062190178E1
5.825059000E0,-8.866520180E0,5.662679281E0,3.438631750E0,1.106821147E1
5.835047000E0,-8.956465559E0,4.365511910E0,2.332222189E0,1.023304597E1
5.845035000E0,-5.022891562E0,5.192043325E0,-2.432002439E-1,7.228132531E0
5.855023000E0,-2.241782428E0,6.731256772E0,2.093267536E0,7.397105863E0
5.865011000E0,-1.555531856E0,7.003666855E0,6.139464753E0,9.442672091E0
5.874999000E0,-3.677380290E0,4.325508184E0,5.940433134E0,8.217170600E0
5.884987000E0,-5.612608988E0,4.929619117E0,3.675552742E0,8.325395622E0
5.894975000E0,-5.487893726E0,8.351569930E0,1.470183558E0,1.010084836E1
5.904963000E0,-4.606806620E0,1.145553629E1,-9.138050549E-1,1.238091348E1
5.914951000E0,-3.623691156E0,1.323068665E1,-3.891021470E0,1.425911129E1
5.924939000E0,-2.952053653E0,1.339317609E1,-6.246289290E0,1.507010008E1
5.934927000E0,-2.592733481E0,1.203558125E1,-6.789699107E0,1.405978296E1
5.944915000E0,-2.907869461E0,1.058349308E1,-5.605308155E0,1.232418395E1
5.954903000E0,-2.971817535E0,9.916821613E0,-4.005249751E0,1.110031873E1
5.964891000E0,-2.392479208E0,9.734627636E0,-2.828886441E0,1.041583076E1
5.974879000E0,-1.540051353E0,1.004016044E1,-2.371279836E0,1.043070218E1
5.984867000E0,-5.806093647E-1,1.051080049E1,-2.055465286E0,1.072562221E1
5.994855000E0,-1.651820880E-1,1.073646325E1,-2.046893268E0,1.093108871E1
6.004843000E0,-4.161900459E-1,1.041644280E1,-1.851054229E0,1.058781831E1
6.014831000E0,-1.116101175E0,9.813353963E0,-1.485359275E0,9.987686920E0
6.024819000E0,-1.891285411E0,9.203547843E0,-1.224918004E0,9.475372157E0
6.034807000E0,-2.303625650E0,8.825839346E0,-1.050420278E0,9.181803421E0
6.044795000E0,-2.399702274E0,8.811234171E0,-9.196177720E-1,9.178350367E0
6.054783000E0,-2.266711447E0,8.847169404E0,-7.950003040E-1,9.167464902E0
6.064771000E0,-2.038631299E0,8.822376040E0,-8.749168316E-1,9.097022372E0
6.074759000E0,-1.948068161E0,8.905710558E0,-8.903757003E-1,9.159662602E0
6.084747000E0,-1.843431652E0,8.830644003E0,-1.465610597E0,9.139284884E0
6.094735000E0,-1.975523908E0,8.832352560E0,-1.756704141E0,9.219498679E0
6.104723000E0,-1.969986010E0,8.844938107E0,-1.651415083E0,9.210914546E0
6.114711000E0,-1.446478799E0,8.704113180E0,-2.305279389E0,9.119660094E0
6.124699000E0,-1.470918114E0,8.693955397E0,-2.954226771E0,9.299242784E0
6.134687000E0,-1.753081645E0,8.976237919E0,-2.949936084E0,9.609800483E0
6.144676000E0,-1.771486195E0,9.224136474E0,-2.583054292E0,9.741407829E0
6.154664000E0,-1.908776041E0,9.499812811E0,-3.506957342E0,1.030478623E1
6.164652000E0,-2.359953925E0,9.418250000E0,-2.408162903E0,1.000360256E1
6.174640000E0,-3.042239646E0,5.080877230E0,9.077662552E0,1.083856508E1
6.184628000E0,-1.081679786E0,-4.534341491E0,7.556117052E0,8.878355074E0
6.194616000E0,2.596131590E0,-1.184057661E1,-3.815458487E0,1.270814216E1
6.204604000E0,7.643651624E0,-2.217798377E1,1.540883880E1,2.806636220E1
6.214592000E0,1.682345802E1,-3.750186369E1,1.133532222E1,4.263693293E1
6.224580000E0,2.188867290E1,-5.272941892E1,-1.192288202E-1,5.709220469E1
6.234568000E0,3.350134726E0,-4.077502041E1,4.626482500E0,4.117317127E1
6.244556000E0,-1.124695208E1,-2.990150310E1,4.571812496E0,3.227220612E1
6.254544000E0,-7.201961140E0,-3.316339574E1,2.198853047E0,3.400755822E1
6.264532000E0,2.938324976E0,-3.186560856E1,7.003957461E0,3.275829945E1
6.274520000E0,9.589757021E0,-2.606514023E1,7.110935195E0,2.866915371E1
6.284508000E0,1.222055324E1,-1.968173023E1,6.290384898E0,2.400586113E1
6.294496000E0,1.281955488E1,-1.519530667E1,2.736032656E0,2.006798960E1
6.304484000E0,1.255312299E1,-1.108161270E1,1.710199481E-1,1.674551536E1
6.314472000E0,1.163987211E1,-6.788795713E0,-4.256246746E-1,1.348167372E1
6.324460000E0,9.675219925E0,-4.598005391E0,-2.998125473E-1,1.071640899E1
6.334448000E0,5.049253149E0,-2.501964521E0,-8.574159689E-1,5.699995261E0
6.344436000E0,-7.375940949E-2,4.705809921E-1,-3.994693773E0,4.022992078E0
6.354424000E0,-6.095960884E0,2.937857491E0,-2.327774797E0,7.156135916E0
6.364412000E0,-9.912133316E0,4.511719784E0,-1.913317135E0,1.105743120E1
6.374400000E0,-1.185849482E1,4.071127406E0,1.027381518E0,1.257988436E1
6.384388000E0,-1.140477427E1,4.056110587E0,3.995764983E0,1.274704072E1
6.394376000E0,-8.083413112E0,7.202930024E0,4.598285472E0,1.176299272E1
6.404364000E0,-4.094787287E0,8.847591573E0,7.018950307E0,1.201302722E1
6.414352000E0,-2.586394514E0,6.619977241E0,5.145704141E0,8.774497499E0
6.424340000E0,-3.969093201E0,6.614409522E0,5.145292497E-1,7.731031918E0
6.434328000E0,-4.269058872E0,9.339397373E0,-2.782606314E0,1.063917783E1
6.444316000E0,-3.611833587E0,1.118993237E1,-4.086509677E0,1.244827256E1
6.454304000E0,-3.067678250E0,1.170699814E1,-5.690109154E0,1.337317455E1
6.464292000E0,-2.382291605E0,1.139136661E1,-5.168480215E0,1.273388135E1
6.474280000E0,-1.351601440E0,1.062048841E1,-3.993172327E0,1.142659292E1
6.484268000E0,-1.848245957E0,9.973823780E0,-2.797776330E0,1.052239166E1
6.494256000E0,-2.701732889E0,9.475591890E0,-1.101419693E0,9.914601737E0
6.504244000E0,-1.951840638E0,8.580805927E0,-4.555204649E-1,8.811776843E0
6.514232000E0,-5.620450397E-1,8.561151681E0,-1.082202088E0,8.647564634E0
6.524221000E0,6.376657641E-1,9.409014323E0,-1.662627266E0,9.576037676E0
6.534208750E0,1.637908015E0,1.027999569E1,-2.284849948E0,1.065746655E1
6.544196750E0,2.011502118E0,1.116890812E1,-2.576354553E0,1.163736448E1
6.554184750E0,1.332816821E0,1.163810157E1,-1.994657167E0,1.188278023E1
6.564172750E0,-1.652290119E-1,1.134677691E1,-1.414784552E0,1.143583238E1
6.574160750E0,-1.538340311E0,1.091731763E1,-1.225219136E0,1.109303733E1
6.584148750E0,-2.431673387E0,1.053926474E1,-8.848725933E-1,1.085228714E1
6.594136750E0,-2.884122164E0,9.930892353E0,-3.447823866E-1,1.034696373E1
6.604124750E0,-3.147304171E0,9.246630712E0,-2.023779809E-1,9.769680646E0
6.614112750E0,-3.680949138E0,8.564214453E0,-6.228085738E-1,9.342539605E0
6.624100750E0,-5.028471560E0,7.910878150E0,-1.616782610E0,9.512176688E0
6.634088750E0,-2.435609294E0,9.103244705E0,-7.715652484E-1,9.454975924E0
6.644076750E0,-2.324773567E0,8.921605629E0,-2.447601787E0,9.538887443E0
6.654064750E0,-2.847940178E0,9.028295095E0,-3.914033772E0,1.024404881E1
6.664052750E0,-2.415686515E0,9.330209643E0,-2.550984653E0,9.969748042E0
6.674040750E0,-1.787811475E0,9.058217052E0,-2.746109163E0,9.632688179E0
6.684028750E0,-2.144052796E0,8.652261826E0,-3.195249585E0,9.469330336E0
6.694016750E0,-2.370662662E0,8.582885197E0,-3.002537636E0,9.396871395E0
6.704004750E0,-2.305942609E0,8.828217409E0,-2.507340451E0,9.462639699E0
6.713992750E0,-2.143874748E0,9.272218128E0,-2.386211286E0,9.811433751E0
6.723980750E0,-1.537476385E0,9.710026061E0,-2.399607257E0,1.011961238E1
6.733968750E0,-1.197344143E0,9.466811711E0,9.184791729E-2,9.542672215E0
6.743956750E0,-1.580301100E0,3.339063608E0,9.723330815E0,1.040143545E1
6.753944750E0,3.079440509E-1,-7.593675472E0,5.637523389E0,9.462579283E0
6.763932750E0,4.329173219E0,-1.246520659E1,-9.113638716E0,1.603688021E1
6.773920750E0,8.538976700E0,-2.578519893E1,1.571940430E1,3.138296160E1
6.783908750E0,1.565715250E1,-4.172908486E1,1.205991035E1,4.617255013E1
6.793896750E0,2.029942073E1,-5.579012290E1,8.554754242E-1,5.937454113E1
6.803884750E0,4.968668577E0,-4.061774434E1,8.143306142E0,4.172292245E1
6.813872750E0,-7.033721543E0,-2.926084941E1,-8.594801822E-1,3.010663138E1
6.823860750E0,-6.266114567E-1,-3.041695855E1,4.068874182E0,3.069429501E1
6.833848750E0,9.126827695E0,-2.992614326E1,9.809181975E0,3.278861213E1
6.843836750E0,1.385235092E1,-2.245491258E1,6.329410969E0,2.713249285E1
6.853824750E0,1.251597212E1,-1.530281123E1,1.735405951E0,1.984533254E1
6.863812750E0,1.075854351E1,-1.254241674E1,-1.187078333E0,1.656706465E1
6.873800750E0,9.744652103E0,-1.214982415E1,-2.112591414E0,1.571749071E1
6.883789750E0,5.339987236E0,-1.100227651E1,-7.924602735E-1,1.225534762E1
6.893777750E0,3.315598439E0,-9.382279683E0,-5.703181189E-1,9.967227690E0
6.903765750E0,-1.246942127E-1,-6.428000287E0,-1.807606493E0,6.678486174E0
6.913753750E0,-2.695874856E0,-1.400815115E0,-7.572167659E-1,3.131038399E0
6.923741750E0,-1.918277620E0,3.965115632E0,-2.341922720E0,4.988640399E0
6.933729750E0,-3.873876556E0,6.766015545E0,-4.023952070E0,8.773715074E0
6.943717750E0,-5.367463303E0,5.250890288E0,-7.712404355E-3,7.508766250E0
6.953705750E0,-6.611525091E0,4.304154738E0,2.666875883E0,8.327679089E0
6.963693750E0,-8.023408985E0,5.288523552E0,2.198581444E0,9.857856434E0
6.973681750E0,-8.542927664E0,6.292740156E0,5.388506262E0,1.190026014E1
6.983669750E0,-9.416377137E0,5.602217901E0,6.425755541E0,1.270209975E1
6.993657750E0,-7.271178140E0,5.412281626E0,-5.629149592E-1,9.081833361E0
7.003645750E0,-4.874579861E0,8.224626294E0,-4.556528167E0,1.059093742E1
7.013633750E0,-3.190722963E0,1.131628953E1,-3.720521924E0,1.233212898E1
7.023621750E0,-1.939143702E0,1.265884884E1,-4.301201309E0,1.350951756E1
7.033609750E0,-1.822566302E0,1.214914588E1,-6.955757693E0,1.411757977E1
7.043597750E0,-9.291933185E-1,1.109832170E1,-8.911113385E0,1.426338272E1
7.053585750E0,-8.484856626E-1,1.020541679E1,-7.153501171E0,1.249171881E1
7.063573750E0,-1.803335540E0,8.331523336E0,-4.639155171E0,9.705053368E0
7.073561750E0,-2.667593336E0,7.112342620E0,-3.853346690E0,8.517614247E0
7.083549750E0,-2.138050629E0,7.607950280E0,-3.606864915E0,8.686866090E0
7.093537750E0,-1.464531639E-1,9.155004258E0,-2.830680367E0,9.583752023E0
7.103525750E0,1.731779946E0,1.060196092E1,-1.843612623E0,1.089952039E1
7.113513750E0,2.398012136E0,1.149103708E1,-8.592952640E-1,1.176999506E1
7.123501750E0,1.894036965E0,1.209302430E1,-5.515837862E-1,1.225287140E1
7.133489750E0,1.656646295E-1,1.159111802E1,-1.624143085E0,1.170552444E1
7.143477750E0,-2.294900581E0,1.036402602E1,-2.652290588E0,1.094140071E1
7.153465750E0,-3.667953116E0,9.541221623E0,-2.612016721E0,1.055042281E1
7.163453750E0,-3.624579055E0,9.395168116E0,-2.402053147E0,1.035261400E1
7.173441750E0,-3.570398755E0,9.358703125E0,-2.419820058E0,1.030478532E1
7.183429750E0,-3.247168182E0,9.444161936E0,-2.460251069E0,1.028538435E1
7.193417750E0,-2.624597882E0,9.690630262E0,-2.486312109E0,1.034304485E1
7.203405750E0,-2.004240169E0,9.897305946E0,-2.558110070E0,1.041717672E1
7.213393750E0,-1.183262001E0,1.009646328E1,-2.670658447E0,1.051052312E1
7.223382750E0,-8.267122395E-1,9.947622406E0,-2.615495814E0,1.031888865E1
7.233370750E0,-1.098401361E0,9.395060527E0,-2.566151746E0,9.800958251E0
7.243358750E0,-1.579896619E0,8.652866428E0,-2.634772330E0,9.182058374E0
7.253346750E0,-2.393635641E0,7.975284061E0,-2.679460845E0,8.747237156E0
7.263334750E0,-3.455181710E0,7.574339315E0,-2.704683979E0,8.753525697E0
7.273322750E0,-4.086789173E0,7.523485495E0,-2.203769679E0,8.840886864E0
7.283310750E0,-4.274019942E0,7.636936097E0,-1.317782460E0,8.850231072E0
7.293298750E0,-4.719581576E0,7.355214908E0,-6.488278064E-1,8.763253626E0
7.303286750E0,-6.456859220E0,6.851412960E0,-1.079111250E0,9.476147510E0
7.313274750E0,-6.672892204E0,5.129775156E0,5.127799089E-1,8.432379661E0
7.323262750E0,-3.863644221E0,5.757548600E-1,5.762902311E0,6.962060282E0
7.333250750E0,1.115989639E0,-7.143001910E0,3.364357786E0,7.974133964E0
7.343238750E0,4.283010621E0,-1.803779724E1,5.343398502E0,1.929399432E1
7.353226750E0,6.633798305E0,-3.560360723E1,1.015489334E1,3.761310924E1
7.363214750E0,1.140320488E1,-4.717525168E1,2.872349087E0,4.861880133E1
7.373202750E0,1.184146071E1,-4.361687480E1,7.335418575E0,4.578711964E1
7.383190750E0,3.313653363E0,-3.277734385E1,1.074606438E1,3.465274114E1
7.393178750E0,2.366124784E0,-3.096411994E1,3.857668367E0,3.129308031E1
7.403166750E0,4.619571676E0,-2.756445520E1,2.732220272E0,2.808210570E1
7.413154750E0,6.039120685E0,-2.444643681E1,2.943999991E0,2.535283786E1
7.423142750E0,6.602950734E0,-2.063683782E1,2.663476896E0,2.183053235E1
7.433130750E0,6.429214754E0,-1.789323887E1,4.817117518E-1,1.901932821E1
7.443118750E0,5.691054649E0,-1.615421378E1,-1.379620712E0,1.718284258E1
7.453106750E0,4.980265945E0,-1.370793990E1,-2.191872641E0,1.474838875E1
7.463094750E0,3.347177204E0,-1.020532323E1,-2.286270091E0,1.098085828E1
7.473082750E0,4.631304699E-1,-7.244604299E0,-1.196833827E0,7.357390332E0
7.483070750E0,-1.396669731E0,-4.258851680E0,1.650573961E-1,4.485058296E0
7.493058750E0,-1.213605981E0,-7.439482641E-1,5.739926554E-1,1.534850502E0
7.503046750E0,-1.657656401E0,2.073778181E0,6.077110630E-1,2.723544276E0
7.513034750E0,-3.101935917E0,5.047428818E0,-1.269845232E0,6.058964517E0
7.523022750E0,-4.638460522E0,7.171364999E0,-1.259025398E0,8.633014359E0
7.533011000E0,-4.851854365E0,8.354729766E0,1.546210225E0,9.784312254E0
7.542999000E0,-5.639962263E0,8.185582681E0,5.099624573E0,1.117224726E1
7.552988000E0,-5.951858593E0,7.598242148E0,8.872804767E0,1.311047554E1
7.562976000E0,-5.718341850E0,6.736232167E0,7.142360471E0,1.136175913E1
7.572964000E0,-5.570578033E0,6.716235859E0,-8.545185274E-1,8.767517645E0
7.582952000E0,-4.820120941E0,8.417305498E0,-4.578820676E0,1.072614546E1
7.592940000E0,-3.572199113E0,1.109879884E1,-4.507110423E0,1.250031945E1
7.602928000E0,-2.211526595E0,1.220016985E1,-3.829652018E0,1.297694991E1
7.612916000E0,-1.510099722E0,1.174139263E1,-5.409335799E0,1.301543760E1
7.622904000E0,-1.669656057E0,1.083577003E1,-7.680078024E0,1.338600993E1
7.632892000E0,-8.220214570E-1,9.936523222E0,-8.291366998E0,1.296753561E1
7.642880000E0,5.106806123E-1,8.758872355E0,-6.682022046E0,1.102851115E1
7.652868000E0,1.296282394E-1,7.130695860E0,-4.123124356E0,8.237947644E0
7.662856000E0,-6.631394514E-1,7.152885459E0,-2.686485690E0,7.669467366E0
7.672844000E0,-5.189611468E-1,8.600887604E0,-1.879303443E0,8.819091205E0
7.682832000E0,5.751299389E-1,1.066190424E1,-9.020137060E-1,1.071543770E1
7.692820000E0,1.272585822E0,1.232162471E1,-4.220688365E-1,1.239435566E1
7.702808000E0,1.779065941E0,1.298231213E1,-2.583543997E-1,1.310619132E1
7.712796000E0,8.974739277E-1,1.227069078E1,-9.771824406E-1,1.234221201E1
7.722784000E0,-9.733602619E-1,1.061245784E1,-2.185682048E0,1.087882796E1
7.732772000E0,-2.482793840E0,9.366448347E0,-3.228345410E0,1.021356128E1
7.742760000E0,-3.718965980E0,8.850143298E0,-3.186587520E0,1.011484475E1
7.752748000E0,-3.977139847E0,8.771535085E0,-2.696719487E0,1.000148814E1
7.762736000E0,-3.636536904E0,9.125969909E0,-2.491170561E0,1.013477470E1
7.772724000E0,-3.234382660E0,9.504771835E0,-2.383138428E0,1.031897609E1
7.782712000E0,-2.805883495E0,9.810972977E0,-2.380364070E0,1.047827782E1
7.792700000E0,-2.451876394E0,9.889727955E0,-2.349804328E0,1.045657675E1
7.802688000E0,-2.387389500E0,9.659720711E0,-2.243239408E0,1.020009588E1
7.812676000E0,-2.679982124E0,9.150821160E0,-1.884164672E0,9.719563190E0
7.822664000E0,-3.386708183E0,8.724904125E0,-1.341142525E0,9.454755818E0
7.832652000E0,-4.325732425E0,8.672623000E0,-1.010271395E0,9.744075072E0
7.842640000E0,-5.017198713E0,8.750747648E0,-4.539499028E-1,1.009722426E1
7.852628000E0,-5.544884198E0,8.831086053E0,-6.658832574E-1,1.044879046E1
7.862616000E0,-4.755493128E0,8.844180892E0,-8.442635344E-1,1.007705470E1
7.872604000E0,-1.209347746E0,6.964861223E0,3.607399351E0,7.936318032E0
7.882592000E0,1.513183397E0,2.525733452E0,7.686798229E0,8.231398452E0
7.892581000E0,4.521591638E0,-5.941046507E0,8.611228405E0,1.139710837E1
7.902569000E0,7.042711637E0,-1.848374800E1,6.211156880E0,2.073227429E1
7.912557000E0,8.762467808E0,-3.374294135E1,6.935364944E0,3.554527001E1
7.922545000E0,1.481680236E1,-5.059376784E1,2.209189171E0,5.276502150E1
7.932533000E0,6.845497917E0,-5.290025117E1,3.277118790E0,5.344190232E1
7.942521000E0,-7.487655512E0,-3.950825154E1,1.220984933E1,4.202436610E1
7.952509000E0,-1.959945318E0,-3.415115418E1,4.361196665E0,3.448423921E1
7.962497000E0,2.606377081E0,-3.050215482E1,6.500963598E-1,3.062021024E1
7.972485000E0,4.957074133E0,-2.426561284E1,3.012180279E0,2.494926412E1
7.982473000E0,7.745301375E0,-1.931784396E1,3.407256761E0,2.108976499E1
7.992461000E0,8.567797626E0,-1.523320130E1,2.143086982E0,1.760824806E1
8.002449000E0,8.332822003E0,-1.068174384E1,1.030035131E0,1.358663116E1
8.012437000E0,7.653912903E0,-6.454423270E0,6.459810895E-1,1.003290855E1
8.022425000E0,4.860025848E0,-2.745562449E0,6.588127311E-1,5.620675993E0
8.032413000E0,1.745790606E0,-2.454550034E-1,5.895027604E-1,1.858910031E0
8.042401000E0,-1.127871181E0,1.501109481E0,2.628726894E-1,1.895923292E0
8.052389000E0,-4.263610437E0,3.451230746E0,-4.751348037E-1,5.505916881E0
8.062377000E0,-6.615264970E0,5.442252114E0,-1.681379140E0,8.729654891E0
8.072365000E0,-8.464210693E0,5.838454185E0,2.002922207E0,1.047578671E1
8.082353000E0,-8.498288850E0,6.268419832E0,6.772369714E0,1.254507840E1
8.092341000E0,-6.061071718E0,6.992841904E0,9.520892608E0,1.327719188E1
8.102329000E0,-2.783362944E0,4.691742690E0,1.040343626E1,1.174695895E1
8.112317000E0,-5.146831484E0,2.102542974E0,6.903775946E0,8.864123397E0
8.122305000E0,-6.673700289E0,5.034203585E0,1.246144128E0,8.451884788E0
8.132293000E0,-4.270135637E0,9.874303000E0,-1.009300831E0,1.080530454E1
8.142281000E0,-2.595832213E0,1.259259403E1,-2.065569275E0,1.302222507E1
8.152269000E0,-2.003629135E0,1.300656989E1,-5.365021505E0,1.421157436E1
8.162257000E0,-1.752374132E0,1.185036953E1,-8.302249836E0,1.457495885E1
8.172245000E0,-1.433934768E0,1.080413425E1,-7.212642249E0,1.306934176E1
8.182233000E0,-1.556752901E0,9.793231355E0,-3.960761796E0,1.067794428E1
8.192221000E0,-1.677263431E0,8.626394913E0,-1.922407655E0,8.995751942E0
8.202210000E0,-9.658964373E-1,8.272484000E0,-1.168293568E0,8.410223381E0
8.212198000E0,3.038511461E-1,9.003572482E0,-9.380682224E-1,9.057406635E0
8.222186000E0,2.209610462E0,1.017768929E1,-1.003059293E0,1.046297595E1
8.232174000E0,3.953543408E0,1.177056205E1,-1.447869267E0,1.250091844E1
8.242162000E0,4.117895484E0,1.298717818E1,-1.289681180E0,1.368528910E1
8.252150000E0,2.705641753E0,1.278006045E1,-1.353725148E0,1.313327888E1
8.262138000E0,8.593525667E-1,1.162914948E1,-1.736449386E0,1.178943853E1
8.272126000E0,-7.055351271E-1,1.052376260E1,-1.776126107E0,1.069588626E1
8.282114000E0,-1.999897442E0,9.328722112E0,-1.808067838E0,9.710497172E0
8.292102000E0,-2.928553401E0,8.299322135E0,-2.050098273E0,9.036485813E0
8.302090000E0,-3.420398670E0,7.855019699E0,-2.153828171E0,8.833993283E0
8.312078000E0,-3.707853346E0,8.052386032E0,-1.845881782E0,9.055185078E0
8.322066000E0,-3.463993464E0,8.762553762E0,-1.807458704E0,9.594191269E0
8.332054000E0,-2.488770863E0,9.657074261E0,-1.870968822E0,1.014660475E1
8.342042000E0,-1.751887936E0,9.914310819E0,-2.196442240E0,1.030470906E1
8.352030000E0,-1.663133781E0,9.691868117E0,-2.297473941E0,1.009835175E1
8.362018000E0,-1.565959050E0,9.519147214E0,-2.223778997E0,9.900080023E0
8.372006000E0,-1.474849197E0,9.517374339E0,-2.308866948E0,9.903860916E0
8.381994000E0,-1.403536994E0,9.673655795E0,-2.155091901E0,1.000969298E1
8.391982000E0,-1.485264112E0,9.880243771E0,-2.100644383E0,1.020969800E1
8.401970000E0,-1.508182858E0,1.007502622E1,-2.172482982E0,1.041635498E1
8.411958000E0,-1.416358768E0,8.789716417E0,8.637971815E-1,8.944905389E0
8.421946000E0,1.393818337E-1,3.047911445E0,1.195391553E1,1.233715073E1
8.431934000E0,4.471495325E0,-5.077644889E0,8.534670226E0,1.089115898E1
8.441922000E0,5.804009991E0,-1.201414887E1,-1.336982962E0,1.340946787E1
8.451910000E0,8.468344674E0,-2.147122614E1,1.228641511E1,2.614732127E1
8.461898000E0,1.501198125E1,-3.435547929E1,5.492371523E0,3.789227736E1
8.471886000E0,1.631009938E1,-5.577093468E1,6.661385468E0,5.848752477E1
8.481874000E0,-5.864942949E-1,-4.935055624E1,1.278576499E1,5.098330279E1
8.491862000E0,-9.286826227E0,-3.269985655E1,-1.285886337E0,3.401733769E1
8.501850000E0,-2.355390758E0,-2.805875075E1,3.068522588E0,2.832414500E1
8.511839000E0,1.766900078E0,-2.588981732E1,7.789718580E0,2.709398996E1
8.521827000E0,5.970091966E0,-2.175591771E1,5.229677174E0,2.315839970E1
8.531815000E0,8.088760976E0,-1.742475293E1,2.284022714E0,1.934597706E1
8.541803042E0,7.823499699E0,-1.381116313E1,-1.228126372E0,1.592054236E1
8.551791042E0,7.930763361E0,-1.086413487E1,-1.745415653E0,1.356366137E1
8.561779042E0,6.498586121E0,-7.342979609E0,-1.620206301E0,9.938613564E0
8.571767042E0,2.937485900E0,-3.795584385E0,-4.007262070E-1,4.816208647E0
8.581755042E0,-2.250941214E-1,-1.354389392E0,-3.446951169E-1,1.415575047E0
8.591743042E0,-2.297994928E0,9.921824491E-1,-2.086030291E0,3.258332253E0
8.601731042E0,-3.314899989E0,4.038076020E0,-1.071909161E0,5.333255022E0
8.611719042E0,-4.336638652E0,6.818980209E0,2.650852758E-1,8.085492941E0
8.621707042E0,-6.332319959E0,8.037504283E0,1.391277137E0,1.032644194E1
8.631695042E0,-6.503047546E0,7.969801127E0,2.222629580E0,1.052366094E1
8.641683042E0,-4.202802902E0,8.224543263E0,3.971075115E0,1.005366111E1
8.651671042E0,-2.373995575E0,8.553162630E0,3.455224979E0,9.525283493E0
8.661659042E0,-1.118353376E0,9.294912926E0,2.986311613E0,9.826707364E0
8.671647042E0,-6.889569551E-2,9.215152811E0,5.127645015E0,1.054592487E1
8.681635042E0,-1.920231175E0,6.316266428E0,7.584610534E0,1.005528847E1
8.691623042E0,-4.536430994E0,4.872618120E0,7.385589439E0,9.943266308E0
8.701611042E0,-5.101176424E0,5.780000154E0,5.036056568E0,9.208271741E0
8.711599042E0,-4.292008609E0,7.174999629E0,1.528370955E0,8.499286755E0
8.721587042E0,-2.740370121E0,8.640544590E0,-2.142183003E0,9.314375300E0
8.731575042E0,-1.354049961E0,9.748944544E0,-5.597017972E0,1.132263137E1
8.741563042E0,-7.488436992E-1,9.933971497E0,-7.828185073E0,1.266984760E1
8.751551042E0,-1.172401529E0,9.598823714E0,-8.722803805E0,1.302302761E1
8.761539042E0,-2.471856038E0,9.472094085E0,-7.861964437E0,1.255552163E1
8.771527042E0,-3.215343542E0,9.729820055E0,-5.733277393E0,1.174215917E1
8.781515042E0,-3.013167874E0,1.039145999E1,-3.824901740E0,1.147569147E1
8.791503042E0,-2.709225512E0,1.104364790E1,-2.795409377E0,1.170967016E1
8.801492042E0,-2.446625449E0,1.142107397E1,-2.139751146E0,1.187457122E1
8.811480042E0,-1.919183939E0,1.129421746E1,-1.456360594E0,1.154831595E1
8.821468042E0,-1.070157847E0,1.078204581E1,-9.447514437E-1,1.087613465E1
8.831456042E0,-2.332954261E-1,1.006954153E1,-9.078194064E-1,1.011307221E1
8.841444042E0,-2.264212932E-1,9.558367413E0,-1.090808166E0,9.623072101E0
8.851432042E0,-7.411401388E-1,9.319821480E0,-1.341424946E0,9.444987136E0
8.861420042E0,-1.306492217E0,9.212844915E0,-1.525831509E0,9.429294520E0
8.871408042E0,-1.438019779E0,9.278273504E0,-1.462497978E0,9.502271331E0
8.881396042E0,-1.144813343E0,9.538937700E0,-1.418993524E0,9.711615348E0
8.891384042E0,-6.443082011E-1,9.780766261E0,-1.267580605E0,9.883586510E0
8.901372042E0,-2.102886790E-1,9.898342073E0,-9.167276394E-1,9.942926465E0
8.911360042E0,-9.787800461E-2,1.012893755E1,-4.575231363E-1,1.013973783E1
8.921348042E0,-2.812064879E-1,1.041154985E1,-7.040018409E-2,1.041558465E1
8.931336042E0,-1.588583243E-1,1.081706595E1,-2.346120729E-1,1.082077606E1
8.941324042E0,1.523895496E-1,1.142207969E1,-5.981046724E-1,1.143874365E1
8.951312042E0,3.214894183E-1,1.213312801E1,1.747307081E0,1.226251332E1
8.961300042E0,4.146925740E-1,1.082132857E1,8.357303710E0,1.367909527E1
8.971288042E0,1.446595159E0,3.892142381E0,8.345803406E0,9.321686777E0
8.981276042E0,1.936909042E0,-6.216381952E0,-3.670767966E-1,6.521484998E0
8.991264042E0,3.697656972E0,-2.157131877E1,6.499528692E0,2.283064462E1
9.001252042E0,3.732830898E0,-3.840319561E1,1.206218726E1,4.042568269E1
9.011240042E0,4.923770732E0,-4.804302059E1,-1.813524460E0,4.832871006E1
9.021228042E0,3.752165593E-1,-5.067999790E1,9.840634732E0,5.162790977E1
9.031216042E0,-7.074389513E0,-4.015154350E1,1.218074657E1,4.255072290E1
9.041204042E0,-6.425737707E-1,-2.918061625E1,7.648044053E-1,2.919770867E1
9.051192042E0,7.583622354E0,-2.380104454E1,2.089506606E0,2.506725128E1
9.061180042E0,9.015072201E0,-2.062352722E1,1.892775720E0,2.258725308E1
9.071168042E0,7.272496102E0,-1.679845649E1,7.847021878E-1,1.832192942E1
9.081156042E0,6.654160649E0,-1.475349456E1,4.166491985E-1,1.619002941E1
9.091145042E0,6.784728974E0,-1.405946865E1,-1.153188602E0,1.565346767E1
9.101133042E0,6.117828301E0,-1.295039452E1,-1.070457079E-1,1.432312815E1
9.111121042E0,5.436372739E0,-9.663790373E0,2.426638204E0,1.135039937E1
9.121109042E0,4.972227777E0,-4.889824721E0,3.372901445E0,7.746605646E0
9.131097042E0,4.349836987E0,-1.122276565E0,2.063485327E0,4.943537013E0
9.141085042E0,2.539969376E0,1.693846573E0,-2.264749779E-1,3.061347997E0
9.151073042E0,-8.384079865E-1,4.158072580E0,6.865250981E-1,4.296953832E0
9.161061042E0,-2.624864223E0,6.274097478E0,2.184639636E0,7.143308876E0
9.171049042E0,-4.072714048E0,5.830100268E0,2.821814234E0,7.651124389E0
9.181037042E0,-4.962296281E0,5.882935708E0,4.527968026E0,8.929491104E0
9.191025042E0,-3.375048543E0,7.793654341E0,6.800801800E0,1.088039088E1
9.201013042E0,-1.629504105E0,8.813087153E0,9.917919720E0,1.336753232E1
9.211001042E0,-4.036871201E0,5.997527686E0,9.622355833E0,1.203563040E1
9.220989042E0,-6.758351015E0,4.378590962E0,2.974630045E0,8.584625278E0
9.230977042E0,-6.925525249E0,6.585555852E0,-4.672406532E0,1.063784887E1
9.240965042E0,-6.043530071E0,9.702911754E0,-7.362174849E0,1.359677795E1
9.250953042E0,-4.260331610E0,1.208588485E1,-8.061224683E0,1.513943135E1
9.260941042E0,-2.597596902E0,1.277459330E1,-7.783424052E0,1.518286645E1
9.270929042E0,-1.691712632E0,1.211737562E1,-5.974160458E0,1.361555275E1
9.280917042E0,-1.768646349E0,1.105610831E1,-3.833757348E0,1.183483571E1
9.290905042E0,-2.357288180E0,9.656868439E0,-1.926931938E0,1.012546208E1
9.300893042E0,-2.646744504E0,8.500847592E0,-9.207980324E-1,8.950839919E0
9.310881042E0,-1.935062930E0,8.355744258E0,-1.575403619E0,8.720368524E0
9.320869042E0,-5.385556050E-1,9.093426061E0,-2.762943882E0,9.519154298E0
9.330857042E0,9.496372309E-1,1.005819793E1,-3.350731142E0,1.064408548E1
9.340845042E0,1.865795352E0,1.092369227E1,-2.815410363E0,1.143393111E1
9.350833042E0,2.197248279E0,1.129521149E1,-1.797044082E0,1.164641876E1
9.360821042E0,1.410586397E0,1.098666912E1,-8.568739320E-1,1.110994533E1
9.370810042E0,7.926280886E-2,1.035707953E1,-4.434820712E-1,1.036687298E1
9.380798042E0,-1.169200325E0,9.770147717E0,-4.514600122E-1,9.850209742E0
9.390786042E0,-2.473832982E0,9.353519568E0,-3.885235065E-1,9.682929745E0
9.400774042E0,-3.363290669E0,9.236779908E0,-2.705375120E-2,9.830084389E0
9.410762042E0,-3.196811961E0,9.334988573E0,7.699087322E-2,9.867499479E0
9.420750042E0,-2.413369994E0,9.614570265E0,-3.122834158E-1,9.917753629E0
9.430738042E0,-1.801777111E0,9.894924960E0,-9.305311614E-1,1.010058558E1
9.440726042E0,-1.492379150E0,9.974070532E0,-1.574666285E0,1.020729408E1
9.450714042E0,-1.547655365E0,9.817925316E0,-2.055379332E0,1.014945707E1
9.460702042E0,-1.869691205E0,9.507750406E0,-2.242218484E0,9.945883908E0
9.470690042E0,-2.208439119E0,9.258212877E0,-2.025346425E0,9.731070710E0
9.480678042E0,-2.418985514E0,9.293110814E0,-1.380355707E0,9.701483464E0
9.490666042E0,-2.549094248E0,9.615471906E0,-7.982585187E-1,9.979599096E0
9.500654042E0,-2.623970768E0,9.962572567E0,-2.327257611E-1,1.030496172E1
9.510642042E0,-2.997769817E0,9.587440939E0,1.426140575E0,1.014591172E1
9.520630042E0,-3.547273602E0,6.435915079E0,9.116074666E0,1.170926856E1
9.530618042E0,-1.058887193E0,-3.677413327E-1,6.741528575E0,6.834082477E0
9.540606000E0,3.670708617E0,-7.287508829E0,-6.031597658E0,1.014702207E1
9.550594000E0,8.440852820E0,-1.630603907E1,2.691224858E0,1.855741355E1
9.560582000E0,1.130323036E1,-2.574489057E1,9.128192436E0,2.956156802E1
9.570570000E0,1.174274100E1,-3.679511541E1,8.659287840E-2,3.862356771E1
9.580558000E0,3.433299967E0,-4.786553654E1,1.164512057E1,4.938123095E1
9.590546000E0,-1.346218142E1,-4.803478771E1,1.487797593E1,5.205694312E1
9.600534000E0,-6.286443290E0,-3.197794059E1,-2.463796821E0,3.268299785E1
9.610522000E0,9.209203269E0,-1.489457033E1,5.538677963E0,1.836667100E1
9.620510000E0,1.132796759E1,-1.209124441E1,8.681435924E0,1.870530328E1
9.630498000E0,9.483109655E0,-1.393357225E1,-5.806017633E-1,1.686448644E1
9.640486000E0,9.653944831E0,-1.602381970E1,-1.757038018E0,1.878958837E1
9.650475000E0,9.595694284E0,-1.804828480E1,-4.854370129E-1,2.044635866E1
9.660463000E0,7.014854917E0,-1.777650037E1,-1.231717147E0,1.915017708E1
9.670451000E0,4.070446790E0,-1.403197972E1,-1.470171279E0,1.468422268E1
9.680439000E0,1.824304971E0,-9.088413827E0,-7.712068141E-1,9.301726424E0
9.690427000E0,9.782359627E-1,-5.724344017E0,6.205303524E-1,5.840386797E0
9.700415000E0,7.053200957E-1,-2.867789721E0,2.226572797E0,3.698556575E0
9.710403000E0,6.986402366E-1,2.129772288E-1,1.822739525E0,1.963628493E0
9.720391000E0,1.338983148E-1,2.817096700E0,1.982732356E-2,2.820346734E0
9.730379000E0,-1.817587982E0,5.062722210E0,-1.304116201E-1,5.380686707E0
9.740367000E0,-3.378445483E0,6.907870751E0,1.765642780E-1,7.691797393E0
9.750355000E0,-4.542573786E0,7.308167042E0,1.256720425E0,8.696184700E0
9.760343000E0,-5.454619560E0,8.032166360E0,2.469994869E0,1.001845525E1
9.770331000E0,-4.347372678E0,9.675207061E0,3.575123890E0,1.119333693E1
9.780319000E0,-4.062037033E0,1.066191476E1,4.505806494E0,1.226698265E1
9.790307000E0,-4.413014690E0,1.025614372E1,5.838330224E0,1.259957470E1
9.800295000E0,-5.597244844E0,6.271615335E0,5.856006941E0,1.024476091E1
9.810283000E0,-6.508111235E0,4.541266349E0,1.652772222E0,8.106187015E0
9.820271000E0,-5.383208685E0,5.935717939E0,-2.724693736E0,8.463783974E0
9.830259000E0,-3.627311459E0,8.267278808E0,-5.093872082E0,1.036594521E1
9.840247000E0,-1.635162309E0,1.032303470E1,-6.236416851E0,1.217093654E1
9.850235000E0,-1.564907867E-1,1.137484823E1,-6.330918381E0,1.301891659E1
9.860223000E0,1.206640193E-1,1.136261819E1,-5.823784105E0,1.276871619E1
9.870211000E0,4.088563219E-2,1.064400006E1,-4.422878358E0,1.152641583E1
9.880199000E0,1.161565469E-1,9.729576811E0,-2.680855991E0,1.009282647E1
9.890187000E0,-6.695441991E-2,9.361887519E0,-1.758101626E0,9.525772522E0
9.900176000E0,-5.002623358E-1,9.484798331E0,-1.274900004E0,9.583163976E0
9.910164000E0,-7.569477940E-1,1.011050829E1,-9.374682981E-1,1.018205258E1
9.920152000E0,-9.254975858E-1,1.102150566E1,-1.266675749E0,1.113259180E1
9.930140000E0,-1.275167806E0,1.159020586E1,-1.458372036E0,1.175099033E1
9.940128000E0,-1.312075431E0,1.141336150E1,-1.405322003E0,1.157416487E1
9.950116000E0,-1.251011789E0,1.087277354E1,-1.324001412E0,1.102430110E1
9.960104000E0,-1.397181217E0,1.057224888E1,-1.459079695E0,1.076352523E1
9.970092000E0,-2.014598658E0,1.035239474E1,-1.318122622E0,1.062864676E1
9.980080000E0,-2.529252307E0,1.017581117E1,-9.752378029E-1,1.053068559E1
9.990068000E0,-2.811755561E0,1.007102438E1,-7.374982005E-1,1.048214697E1
1.000005600E1,-2.949432347E0,9.915072126E0,-6.213498397E-1,1.036310195E1
1.001004400E1,-2.921467161E0,9.649358275E0,-8.290189661E-1,1.011594573E1
1.002003200E1,-2.980436915E0,9.294408896E0,-1.054150802E0,9.817345611E0
1.003002000E1,-3.146851889E0,8.922245314E0,-8.871097380E-1,9.502426108E0
1.004000800E1,-3.217819837E0,8.625297391E0,-4.757453991E-1,9.218267368E0
1.004999600E1,-3.143632704E0,8.277268192E0,-1.616600177E-1,8.855604398E0
1.005998400E1,-2.862675746E0,6.910566317E0,1.082293305E0,7.557922866E0
1.006997200E1,-2.698630357E0,3.625215232E0,1.906303985E0,4.904975654E0
1.007996000E1,-2.565526679E0,-2.055679879E0,-1.613661951E-1,3.291471700E0
1.008994800E1,-8.635387346E-1,-9.673528910E0,-2.499655455E-1,9.715211964E0
1.009993600E1,4.601378065E0,-2.142802457E1,1.233431550E1,2.514892157E1
1.010992400E1,1.023525396E1,-2.877458326E1,1.197965381E1,3.280623677E1
1.011991200E1,1.375408144E1,-2.898618698E1,-2.422995242E0,3.217521869E1
1.012990000E1,9.570592772E0,-1.899171317E1,2.762926340E-1,2.126870360E1
1.013988800E1,5.813840915E0,-1.724963467E1,7.196006336E0,1.957378731E1
1.014987600E1,3.949623142E0,-2.719880308E1,9.936966441E0,2.922529237E1
1.015986500E1,2.155304155E0,-3.318002756E1,4.610783896E0,3.356812317E1
1.016985300E1,1.804183386E0,-3.237077993E1,2.908889507E0,3.255125357E1
1.017984100E1,2.828771543E0,-2.546438326E1,5.440849367E0,2.619235776E1
1.018982900E1,5.547278048E0,-1.782821198E1,6.375040301E0,1.972963697E1
1.019981700E1,8.162618911E0,-1.503022223E1,2.543725335E0,1.729180344E1
1.020980500E1,8.034946126E0,-1.393596610E1,8.366546988E-2,1.608659412E1
1.021979300E1,7.526686846E0,-1.086910149E1,-9.974759334E-1,1.325833098E1
1.022978100E1,5.907933140E0,-7.283673640E0,-9.067924891E-1,9.422199759E0
1.023976900E1,3.291201224E0,-4.415600329E0,-3.472971278E-1,5.518165190E0
1.024975700E1,1.137126739E0,-1.762327409E0,-8.829517829E-1,2.275622765E0
1.025974500E1,-9.146588945E-1,1.043398796E0,-2.945122072E0,3.255614528E0
1.026973300E1,-1.820847220E0,3.769235078E0,-3.306578232E0,5.334423800E0
1.027972100E1,-3.188362734E0,6.564692987E0,-4.548918162E-1,7.312166403E0
1.028970900E1,-5.787233160E0,9.171583453E0,1.439956961E0,1.093999482E1
1.029969700E1,-8.067991666E0,9.557710186E0,2.288926481E0,1.271540396E1
1.030968500E1,-6.958206507E0,8.686069842E0,4.102162673E0,1.186137368E1
1.031967300E1,-6.391337661E0,7.336518436E0,2.078303926E0,9.949524967E0
1.032966100E1,-3.620299771E0,7.987555028E0,2.062845642E0,9.009047558E0
1.033964900E1,-1.148170375E0,8.567047428E0,3.555661433E0,9.346407068E0
1.034963700E1,-1.104396072E0,6.217249678E0,6.321111431E0,8.934782257E0
1.035962500E1,-4.231909465E0,2.952641006E0,6.914317306E0,8.627568049E0
1.036961300E1,-5.850844434E0,3.034568684E0,3.393863713E0,7.413453891E0
1.037960100E1,-5.153583848E0,5.445072811E0,1.524881921E0,7.650719527E0
1.038958900E1,-3.341030027E0,8.946845720E0,-2.839590646E-1,9.554536238E0
1.039957800E1,-1.471815223E0,1.171426272E1,-2.691116685E0,1.210918247E1
1.040956600E1,-6.463023940E-1,1.262717447E1,-5.595888875E0,1.382668486E1
1.041955400E1,-1.158582366E0,1.209312253E1,-7.857653870E0,1.446819443E1
1.042954200E1,-1.430300723E0,1.083959527E1,-7.473036304E0,1.324344583E1
1.043953000E1,-1.634674505E0,9.807721925E0,-5.044228052E0,1.114934109E1
1.044951800E1,-1.979647511E0,9.581831120E0,-2.922074686E0,1.021121992E1
1.045950600E1,-2.345943704E0,9.660332329E0,-1.606419151E0,1.007005735E1
1.046949400E1,-2.518106637E0,9.819016407E0,-8.904461592E-1,1.017579671E1
1.047948200E1,-2.401019944E0,9.846444526E0,-7.455903085E-1,1.016234577E1
1.048947000E1,-2.228514657E0,9.754513432E0,-1.412447566E0,1.010503924E1
1.049945800E1,-2.136562659E0,9.656967841E0,-2.425512176E0,1.018356702E1
1.050944600E1,-1.768188073E0,9.635136092E0,-2.903399264E0,1.021724346E1
1.051943400E1,-1.215717264E0,9.720732313E0,-2.703718019E0,1.016271107E1
1.052942200E1,-6.454703352E-1,9.851017048E0,-2.511049924E0,1.018648814E1
1.053941012E1,-3.493775672E-1,1.003547682E1,-2.753972206E0,1.041235913E1
1.054939812E1,-1.966281214E-1,1.036991768E1,-2.527533810E0,1.067531182E1
1.055938612E1,-2.292207938E-1,1.063569468E1,-1.684294854E0,1.077067280E1
1.056937412E1,-7.620540212E-1,1.083040696E1,-4.838980258E-1,1.086796202E1
1.057936212E1,-1.699781205E0,1.073315724E1,6.760316849E-2,1.086712890E1
1.058935012E1,-2.349824355E0,9.825352449E0,1.174799180E-1,1.010311966E1
1.059933812E1,-3.804144709E0,8.225964721E0,-5.187357366E-2,9.063150856E0
1.060932612E1,-5.508488789E0,5.622791914E0,-1.740365413E0,8.061520292E0
1.061931412E1,-4.636315178E0,8.607288551E-1,-2.509083214E0,5.341513940E0
1.062930212E1,-2.323259577E-2,-5.404327074E0,3.425211221E-1,5.415220364E0
1.063929013E1,4.449041725E0,-1.293770372E1,8.051810081E0,1.587481639E1
1.064927912E1,8.952743222E0,-2.274570631E1,1.248816276E1,2.744946222E1
1.065926712E1,1.205062380E1,-3.062932708E1,2.190529536E0,3.298744657E1
1.066925512E1,4.753134653E0,-3.281075250E1,2.145943932E0,3.322262548E1
1.067924312E1,-4.030374067E0,-2.728935306E1,6.592975969E0,2.836229958E1
1.068923112E1,-7.381447856E0,-2.688249210E1,6.238626514E0,2.856701970E1
1.069921912E1,-6.810735928E-1,-2.381554563E1,5.369175952E0,2.442277882E1
1.070920712E1,4.605419660E0,-1.958390865E1,6.849421399E0,2.125215146E1
1.071919512E1,4.805216680E0,-1.689403508E1,5.320432978E0,1.835226241E1
1.072918312E1,4.692511598E0,-1.498851521E1,3.513741574E0,1.609414903E1
1.073917112E1,4.555381528E0,-1.461698780E1,1.020534721E0,1.534435806E1
1.074915913E1,3.671855840E0,-1.485715283E1,-2.811588331E-1,1.530674903E1
1.075914712E1,2.336189233E0,-1.424262450E1,3.347530961E-1,1.443683457E1
1.076913512E1,1.014204817E0,-1.184694657E1,9.530955666E-1,1.192841756E1
1.077912312E1,3.882551193E-4,-8.506848004E0,1.315493714E0,8.607960666E0
1.078911112E1,1.971806833E-1,-5.646218199E0,2.224544544E0,6.071841451E0
1.079909912E1,1.398807766E0,-3.148968873E0,2.496043046E0,4.254750171E0
1.080908712E1,2.442828998E0,-9.954118663E-1,2.073402205E0,3.355183303E0
1.081907513E1,2.220911376E0,1.162396651E0,8.817273029E-1,2.657264825E0
1.082906312E1,4.632971156E-1,3.101143327E0,5.603831148E-1,3.185241496E0
1.083905112E1,-2.121576538E0,4.320337492E0,1.266342604E0,4.976949531E0
1.084903912E1,-4.252613871E0,5.454934725E0,1.730004585E0,7.129793367E0
1.085902712E1,-5.825372794E0,7.411271580E0,1.320838069E0,9.518746126E0
1.086901512E1,-5.994489473E0,9.291988733E0,9.794945028E-1,1.110109761E1
1.087900412E1,-6.264276495E0,1.046556175E1,2.005360349E-1,1.219874410E1
1.088899212E1,-4.652732698E0,1.164827338E1,-4.227134921E-2,1.254320459E1
1.089898012E1,-2.975887489E0,1.175935411E1,4.696267265E-1,1.213914596E1
1.090896812E1,-3.260471475E0,9.939129910E0,5.611162826E-1,1.047529613E1
1.091895612E1,-3.843273692E0,7.136772287E0,1.248366508E0,8.201383437E0
1.092894413E1,-4.051580749E0,6.035964943E0,1.137438396E0,7.358121055E0
1.093893212E1,-4.406562288E0,5.954513814E0,-4.159237053E-1,7.419367795E0
1.094892012E1,-4.265284494E0,6.680652629E0,-1.923028775E0,8.156090426E0
1.095890812E1,-3.445104910E0,8.057131047E0,-3.044673842E0,9.276645264E0
1.096889612E1,-2.541014566E0,9.244042150E0,-3.746406378E0,1.029294084E1
1.097888412E1,-1.645445953E0,9.777201213E0,-3.379952018E0,1.047498122E1
1.098887212E1,-9.887349308E-1,1.002048339E1,-2.942763889E0,1.049035478E1
1.099886012E1,-8.915983531E-1,1.010800685E1,-2.678411270E0,1.049479095E1
1.100884812E1,-1.161297374E0,1.004203155E1,-2.660583109E0,1.045321538E1
1.101883612E1,-1.602349635E0,9.941865238E0,-2.781388924E0,1.044721652E1
1.102882412E1,-2.043274280E0,9.738333017E0,-2.920842678E0,1.037021801E1
1.103881212E1,-2.350204424E0,9.514032070E0,-3.063014803E0,1.026753752E1
1.104880012E1,-2.502274423E0,9.359716448E0,-3.158437269E0,1.019025982E1
1.105878812E1,-2.388441852E0,9.294359779E0,-3.054998855E0,1.007088855E1
1.106877612E1,-1.932403762E0,9.249505788E0,-2.784745810E0,9.851007606E0
1.107876412E1,-1.522777362E0,9.150794263E0,-2.341480086E0,9.567571036E0
1.108875212E1,-1.517561207E0,9.140849903E0,-1.999196068E0,9.479183187E0
1.109874012E1,-1.636026527E0,9.259086451E0,-1.795028547E0,9.572324284E0
1.110872813E1,-1.754612446E0,9.555664245E0,-1.859584147E0,9.891786351E0
1.111871612E1,-1.904822008E0,9.816464682E0,-1.789185717E0,1.015837149E1
1.112870512E1,-2.260196625E0,9.740155594E0,-1.111363030E0,1.006052919E1
1.113869312E1,-3.104507230E0,8.556707212E0,-1.991240054E-1,9.104661104E0
1.114868112E1,-3.472620445E0,4.616268584E0,1.622155909E0,6.000034849E0
1.115866912E1,-1.493067660E0,-9.438908798E-1,1.272924230E0,2.177272864E0
1.116865712E1,9.366960271E-1,-5.258029153E0,-2.112927336E0,5.743581805E0
1.117864512E1,4.489442477E0,-1.181338940E1,4.886904037E-1,1.264713727E1
1.118863312E1,1.060670301E1,-2.079396186E1,6.224414856E0,2.415852518E1
1.119862112E1,1.194049500E1,-2.768039145E1,-6.644375333E-1,3.015329118E1
1.120860912E1,4.480226972E0,-2.450298640E1,-8.227909505E-3,2.490921203E1
1.121859713E1,1.733719906E0,-1.365717086E1,3.396061974E0,1.417946887E1
1.122858512E1,2.104344062E0,-1.403115410E1,4.198394394E0,1.479621792E1
1.123857312E1,-3.014042325E-1,-2.241440307E1,8.096717282E0,2.383386541E1
1.124856112E1,-8.103288529E-1,-2.895369751E1,1.337428725E1,3.190367991E1
1.125854912E1,1.960498318E0,-2.339977819E1,1.242926142E1,2.656839688E1
1.126853712E1,4.013361009E0,-1.244477175E1,8.561805984E0,1.562958515E1
1.127852512E1,5.881164587E0,-7.564615980E0,1.291850497E0,9.668525716E0
1.128851313E1,4.628260931E0,-6.887404327E0,-1.856105053E0,8.503073772E0
1.129850112E1,3.059304745E0,-8.485928421E0,-1.454933727E0,9.137130777E0
1.130848912E1,1.936674715E0,-1.060822680E1,-4.081950018E-1,1.079128389E1
1.131847712E1,2.533282793E-1,-1.143775491E1,-2.383104368E-1,1.144304175E1
1.132846512E1,-8.286612627E-1,-1.033096820E1,-1.969139041E-1,1.036601942E1
1.133845312E1,-5.427139986E-1,-8.329414830E0,-1.172875446E-1,8.347900710E0
1.134844112E1,2.314684635E-1,-6.147634483E0,4.590765953E-2,6.152161807E0
1.135842912E1,6.176495755E-1,-3.730238827E0,1.842082699E0,4.205881760E0
1.136841812E1,1.200552364E0,-1.573475207E0,2.760248315E0,3.396486562E0
1.137840612E1,8.776173681E-1,-8.524480283E-2,1.868943200E0,2.066501296E0
1.138839412E1,-1.263714865E0,8.325306576E-1,-4.170979723E-2,1.513876568E0
1.139838213E1,-2.549039869E0,3.642166311E0,2.011331087E-1,4.450104967E0
1.140837012E1,-2.289348065E0,6.549880820E0,4.200996405E-1,6.951153647E0
1.141835812E1,-2.627470035E0,7.692154863E0,-2.286490823E-1,8.131735708E0
1.142834612E1,-2.764950646E0,9.253706428E0,-1.786740119E0,9.821836640E0
1.143833412E1,-2.832725430E0,1.015966233E1,-2.191390246E0,1.077243070E1
1.144832212E1,-2.975847143E0,9.985671408E0,-4.822462604E-1,1.043081306E1
1.145831012E1,-2.638732649E0,9.817421286E0,7.649128711E-1,1.019459476E1
1.146829812E1,-2.099916112E0,9.955801492E0,1.072610316E0,1.023123277E1
1.147828612E1,-2.319015960E0,9.594416083E0,1.534225918E0,9.989219397E0
1.148827412E1,-2.703202879E0,7.915752389E0,9.465047313E-1,8.417975582E0
1.149826212E1,-3.169714209E0,7.016847063E0,2.503691496E-1,7.703630027E0
1.150825012E1,-3.263122310E0,6.971804207E0,1.649733424E-2,7.697681032E0
1.151823812E1,-3.293593613E0,7.204545609E0,-6.943960351E-1,7.952070308E0
1.152822612E1,-3.828560635E0,7.636781731E0,-1.790896904E0,8.728437630E0
1.153821450E1,-3.973929433E0,8.368402310E0,-2.836196045E0,9.688461197E0
1.154820250E1,-3.588660487E0,9.194836076E0,-3.263451508E0,1.039584582E1
1.155819050E1,-2.994985080E0,9.780669782E0,-3.264081838E0,1.073711634E1
1.156817850E1,-2.271250640E0,1.006477254E1,-2.957044544E0,1.073323522E1
1.157816650E1,-1.701941166E0,1.018076376E1,-2.514078782E0,1.062380095E1
1.158815450E1,-1.416278515E0,1.014898648E1,-2.341789988E0,1.051150568E1
1.159814350E1,-1.297391465E0,1.002323392E1,-2.328049762E0,1.037151187E1
1.160813150E1,-1.180648735E0,9.809849142E0,-2.214596676E0,1.012578442E1
1.161811950E1,-1.167922562E0,9.593915561E0,-2.001617693E0,9.869839527E0
1.162810750E1,-1.078076001E0,9.401127598E0,-1.834867089E0,9.638992957E0
1.163809550E1,-1.047669894E0,9.399327825E0,-1.787336681E0,9.624944061E0
1.164808350E1,-1.294559951E0,9.459997950E0,-1.769218645E0,9.710694172E0
1.165807150E1,-1.619908970E0,9.040954902E0,-9.058953801E-1,9.229497118E0
1.166805950E1,-2.087416665E0,8.213747549E0,8.355694556E-1,8.515934091E0
1.167804750E1,-3.727963968E0,6.776897798E0,2.234448557E0,8.050889359E0
1.168803550E1,-4.555756334E0,2.685724967E0,2.132388624E0,5.702202699E0
1.169802350E1,-3.195861204E0,-2.360216904E0,-2.233516219E0,4.557712953E0
1.170801150E1,-6.447008416E-1,-6.283396890E0,-2.300533789E0,6.722289146E0
1.171799950E1,3.775022359E0,-1.059975418E1,2.463645670E0,1.151846919E1
1.172798750E1,9.499001802E0,-1.676150911E1,5.967046151E0,2.016890831E1
1.173797550E1,1.145820613E1,-2.047946586E1,1.957569155E0,2.354848374E1
1.174796350E1,6.036214035E0,-1.729542421E1,3.882845893E0,1.872549254E1
1.175795150E1,6.151414123E-1,-1.245159895E1,2.877585561E0,1.279457753E1
1.176793950E1,-5.253710108E-1,-1.241526903E1,4.855846551E0,1.334144541E1
1.177792750E1,1.567751075E-1,-1.602431905E1,4.538597972E0,1.665539706E1
1.178791550E1,-3.380026862E-1,-2.111074529E1,6.059093020E0,2.196566459E1
1.179790350E1,-1.379318704E-1,-2.374857864E1,7.894217679E0,2.502663951E1
1.180789150E1,1.431730075E0,-2.157166493E1,6.753555129E0,2.264943897E1
1.181787950E1,3.175638608E0,-1.647779636E1,5.954341321E0,1.780608418E1
1.182786750E1,3.723369810E0,-1.203295235E1,4.305110757E0,1.331125101E1
1.183785550E1,3.849992142E0,-9.988828905E0,2.548227691E0,1.100420859E1
1.184784450E1,3.532266723E0,-9.590680881E0,1.431972588E0,1.032030104E1
1.185783250E1,2.582097688E0,-9.920787195E0,6.091926013E-1,1.026938960E1
1.186782050E1,1.614915594E0,-1.007678155E1,3.382520700E-1,1.021096926E1
1.187780850E1,4.805405545E-1,-8.348306015E0,5.657723473E-1,8.381242801E0
1.188779650E1,-7.147142324E-1,-5.493407650E0,4.839558401E-1,5.560805454E0
1.189778450E1,-1.424612698E0,-2.964785673E0,7.153762834E-1,3.366190525E0
1.190777250E1,-2.784873864E0,-2.565138423E-1,-5.157471516E-1,2.843820830E0
1.191776050E1,-3.543497762E0,2.875729070E0,6.027748436E-4,4.563572552E0
1.192774850E1,-2.158777401E0,5.585649231E0,1.901282980E0,6.282887407E0
1.193773650E1,-1.886448594E0,6.308627041E0,5.284603871E-3,6.584640565E0
1.194772450E1,-2.677216976E0,7.380978325E0,-1.732826452E0,8.040461385E0
1.195771250E1,-3.403124241E0,8.482687894E0,-1.353222873E0,9.239505433E0
1.196770050E1,-3.009635571E0,8.907105119E0,5.175516389E-1,9.416065397E0
1.197768850E1,-1.960502703E0,9.488728244E0,2.052208972E0,9.904094921E0
1.198767650E1,-7.323851028E-1,9.988406736E0,3.084111557E0,1.047933209E1
1.199766450E1,3.603601000E-1,9.438166201E0,3.750776002E0,1.016253715E1
1.200765250E1,-6.416854325E-1,7.729637269E0,3.851753324E0,8.659968601E0
1.201764050E1,-3.020317265E0,6.967345120E0,2.643690503E0,8.040852808E0
1.202762850E1,-4.360179834E0,6.913331466E0,1.261547741E-1,8.174425678E0
1.203761650E1,-4.522422819E0,7.629542293E0,-2.804818132E0,9.302108821E0
1.204760450E1,-3.829722477E0,8.946062778E0,-4.667788401E0,1.079291722E1
1.205759250E1,-2.421659446E0,1.018647649E1,-5.684033897E0,1.191373069E1
1.206758050E1,-1.273771199E0,1.084087581E1,-5.460833396E0,1.220523588E1
1.207756950E1,-9.688932815E-1,1.084141025E1,-3.968152676E0,1.158538588E1
1.208755750E1,-8.379548272E-1,1.060499446E1,-2.653010965E0,1.096387445E1
1.209754550E1,-7.724651349E-1,1.023657075E1,-1.952628551E0,1.044972925E1
1.210753350E1,-9.300980289E-1,9.786508811E0,-1.690559853E0,9.974910008E0
1.211752150E1,-1.412670491E0,9.309200013E0,-1.769985946E0,9.580693766E0
1.212750950E1,-2.153657433E0,8.928167374E0,-1.941724809E0,9.387263085E0
1.213749750E1,-2.758758445E0,8.620972790E0,-2.063659136E0,9.283889758E0
1.214748550E1,-3.147230203E0,8.463074579E0,-2.158669958E0,9.283778609E0
1.215747350E1,-3.234155496E0,8.481934773E0,-2.469254612E0,9.407454363E0
1.216746150E1,-2.997664567E0,8.674302905E0,-2.862008579E0,9.613564212E0
1.217744950E1,-2.772858421E0,8.897044399E0,-2.860518416E0,9.748266947E0
1.218743750E1,-2.841698568E0,9.022436185E0,-2.253541471E0,9.724096597E0
1.219742550E1,-3.080502071E0,9.435875262E0,-1.659000384E0,1.006367315E1
1.220741350E1,-3.055826236E0,1.013091157E1,-4.733695292E-1,1.059233317E1
1.221740150E1,-2.911315225E0,9.401080236E0,2.041056578E0,1.005096900E1
1.222738950E1,-3.955293480E0,7.048264738E0,5.174459578E0,9.596739772E0
1.223737750E1,-4.820385527E0,1.448644754E0,7.511862985E0,9.042277023E0
1.224736550E1,-1.027803102E-1,-6.266393187E0,2.538721288E0,6.761904550E0
1.225735350E1,7.159745997E0,-1.312930294E1,2.895979440E0,1.523244089E1
1.226734150E1,1.349529537E1,-2.320874264E1,8.735604529E0,2.823259674E1
1.227732950E1,1.511358130E1,-3.221470605E1,2.957803513E0,3.570652920E1
1.228731750E1,3.853136775E0,-2.456176028E1,-2.513218072E0,2.498885744E1
1.229730550E1,-4.662766228E0,-1.026483853E1,-1.000011286E0,1.131849467E1
1.230729450E1,-2.453560393E0,-4.751643321E0,2.099375829E0,5.745037138E0
1.231728250E1,-1.125079574E-1,-6.193337490E0,5.629912069E0,8.370543424E0
1.232727050E1,1.659282951E0,-1.226691114E1,7.647659306E0,1.455049902E1
1.233725850E1,2.316657778E0,-1.839324012E1,7.198635828E0,1.988714518E1
1.234724650E1,3.487880509E0,-2.280569874E1,4.750039430E0,2.355478890E1
1.235723450E1,2.681866390E0,-2.342113690E1,3.801229287E0,2.387868098E1
1.236722250E1,1.271093028E0,-1.979483876E1,2.521877214E0,1.999527904E1
1.237721050E1,1.835500343E0,-1.472937479E1,1.853497195E0,1.495857598E1
1.238719850E1,3.685412318E0,-1.132636662E1,1.197990845E0,1.197096600E1
1.239718650E1,4.732901825E0,-9.403119745E0,2.908486927E-1,1.053107846E1
1.240717450E1,4.644798319E0,-7.882251937E0,-5.376292598E-1,9.164774533E0
1.241716250E1,3.976259256E0,-5.519751111E0,-3.648661105E-1,6.812592552E0
1.242715050E1,3.183837282E0,-3.062403184E0,-3.462025291E-1,4.431138600E0
1.243713850E1,1.606360240E0,-1.030441366E0,-3.967125320E-1,1.949252027E0
1.244712650E1,4.975658923E-2,1.160857079E0,-6.578333956E-1,1.335218953E0
1.245711450E1,-1.252151119E0,3.604659346E0,-6.708457893E-1,3.874465834E0
1.246710250E1,-3.061985693E0,6.104879642E0,-2.376565719E-1,6.833870973E0
1.247709050E1,-5.076501174E0,8.182388347E0,3.505200400E-1,9.635621803E0
1.248707850E1,-6.421336216E0,1.040042143E1,-3.163291774E-1,1.222711695E1
1.249706650E1,-6.537039165E0,1.100380263E1,7.304107904E-2,1.279929250E1
1.250705450E1,-4.365426249E0,9.804084372E0,1.691839809E0,1.086459105E1
1.251704350E1,-2.120985092E0,8.537602020E0,1.534540352E0,8.929951853E0
1.252703150E1,-7.572293374E-1,7.786513721E0,7.693871605E-1,7.860989047E0
1.253701950E1,3.465507308E-1,7.375295416E0,2.678655537E-1,7.388290184E0
1.254700737E1,6.067021260E-1,6.213895131E0,5.426519450E-1,6.266981035E0
1.255699537E1,-6.208178893E-1,5.177816464E0,2.609249818E0,5.831241961E0
1.256698337E1,-2.682430061E0,4.739686934E0,4.272769223E0,6.922183189E0
1.257697137E1,-4.005282203E0,5.113776589E0,3.050504685E0,7.176250787E0
1.258695937E1,-4.280518245E0,6.343439609E0,3.217200910E-1,7.659345033E0
1.259694737E1,-3.903698526E0,7.937829722E0,-2.095848643E0,9.090686685E0
1.260693537E1,-2.813347758E0,9.514172988E0,-3.384608740E0,1.048284263E1
1.261692337E1,-1.499507344E0,1.081282789E1,-3.690571901E0,1.152328470E1
1.262691137E1,-6.923460013E-1,1.154295100E1,-3.980192093E0,1.222951307E1
1.263689938E1,-7.351812413E-1,1.170288872E1,-4.458249920E0,1.254488295E1
1.264688737E1,-1.259054195E0,1.154812929E1,-4.649933344E0,1.251264911E1
1.265687537E1,-1.769861254E0,1.120674428E1,-4.300811592E0,1.213344579E1
1.266686337E1,-2.335614159E0,1.069833707E1,-3.456282448E0,1.148283057E1
1.267685137E1,-2.958816835E0,9.893853750E0,-2.431040719E0,1.060909506E1
1.268683937E1,-3.595951672E0,8.992320101E0,-1.755377116E0,9.842460975E0
1.269682737E1,-4.080473596E0,8.209900666E0,-1.445214924E0,9.281238058E0
1.270681537E1,-4.253509079E0,7.664350183E0,-1.567264879E0,8.904545043E0
1.271680337E1,-3.935131695E0,7.467451628E0,-1.828254181E0,8.636585472E0
1.272679137E1,-3.511712298E0,7.706121522E0,-2.008379705E0,8.703448812E0
1.273678037E1,-2.948363476E0,8.129338898E0,-2.001158832E0,8.876014577E0
1.274676838E1,-2.489226362E0,8.355251922E0,-1.265201227E0,8.809495826E0
1.275675637E1,-2.785609444E0,7.476193215E0,5.188298768E-1,7.995140362E0
1.276674437E1,-2.700752019E0,3.103391581E0,2.558103931E0,4.844481035E0
1.277673237E1,-9.057307810E-1,-2.950143660E0,2.468305901E0,3.951737578E0
1.278672037E1,3.673874007E0,-1.051632962E1,7.640017580E0,1.350779062E1
1.279670837E1,1.102056894E1,-1.987797448E1,9.168742876E0,2.450821607E1
1.280669637E1,1.348336822E1,-2.668781958E1,2.842669790E0,3.003534092E1
1.281668438E1,8.144017164E0,-2.382447082E1,1.840934452E0,2.524518697E1
1.282667237E1,2.580806038E0,-1.167221656E1,3.318926967E0,1.240630789E1
1.283666037E1,2.131250171E-1,-6.156153291E0,-1.339676043E0,6.303838317E0
1.284664837E1,3.521370144E-1,-5.870026225E0,1.571940313E0,6.087052219E0
1.285663637E1,1.301985768E0,-1.096497946E1,7.355777995E0,1.326775834E1
1.286662437E1,-1.087613540E-1,-1.847777800E1,8.190679114E0,2.021205910E1
1.287661237E1,-1.861786501E0,-2.441441980E1,5.789794241E0,2.516052186E1
1.288660037E1,-1.697387208E0,-2.445966087E1,5.738979598E0,2.518118385E1
1.289658837E1,-5.184419140E-2,-1.950480985E1,4.841068298E0,2.009667230E1
1.290657637E1,2.214255637E0,-1.413354820E1,3.092152063E0,1.463630818E1
1.291656437E1,3.778119337E0,-1.037471707E1,1.769401370E0,1.118211613E1
1.292655238E1,4.991045871E0,-9.249493509E0,1.273671211E0,1.058706321E1
1.293654037E1,5.460480809E0,-9.197508838E0,5.706578422E-1,1.071152043E1
1.294652937E1,4.871879032E0,-8.952620430E0,4.394287813E-1,1.020184863E1
1.295651737E1,3.329606906E0,-7.757901540E0,5.832157610E-1,8.462355410E0
1.296650537E1,1.823471158E0,-4.480582191E0,7.167462860E-1,4.890234051E0
1.297649337E1,8.504523736E-1,-1.723620595E0,8.530343579E-1,2.102808791E0
1.298648137E1,-3.316438392E-1,3.699901718E-1,3.077892458E-1,5.844780433E-1
1.299646937E1,-1.919732408E0,2.831149313E0,-7.633113188E-1,3.504771479E0
1.300645737E1,-3.428782993E0,5.133286994E0,-8.391859585E-1,6.229881318E0
1.301644537E1,-4.525131834E0,7.461682765E0,-1.364257738E0,8.832594578E0
1.302643337E1,-5.411564173E0,9.921342680E0,-2.533972764E0,1.158184292E1
1.303642137E1,-4.973047557E0,1.215930951E1,-2.223871529E-1,1.313885329E1
1.304640937E1,-4.473290713E0,1.104976408E1,1.863287773E0,1.206563125E1
1.305639737E1,-3.011723027E0,9.434191849E0,2.440588052E0,1.019955496E1
1.306638537E1,-1.577460669E0,8.869826195E0,1.080882883E0,9.073615966E0
1.307637337E1,-7.398920506E-2,8.557100730E0,7.654266952E-1,8.591584565E0
1.308636137E1,6.042483419E-2,6.933201474E0,1.789750265E0,7.160735985E0
1.309634937E1,-1.256846141E0,5.163658601E0,3.334038511E0,6.273662819E0
1.310633738E1,-3.819937746E0,4.622385941E0,3.953158076E0,7.182327962E0
1.311632537E1,-5.170181755E0,4.935970947E0,2.157119130E0,7.466441690E0
1.312631337E1,-4.987900069E0,5.841733303E0,-7.557140315E-1,7.718555486E0
1.313630137E1,-3.954760798E0,7.369755179E0,-2.997343554E0,8.884677414E0
1.314628937E1,-2.408077533E0,9.364396559E0,-4.023977506E0,1.047297261E1
1.315627837E1,-1.249503792E0,1.079847181E1,-4.438110940E0,1.174159622E1
1.316626637E1,-7.068924120E-1,1.125203565E1,-4.103681195E0,1.199784157E1
1.317625437E1,-5.682914740E-1,1.084957296E1,-3.723268361E0,1.148472533E1
1.318624237E1,-9.787866242E-1,1.015054886E1,-3.332153953E0,1.072822983E1
1.319623037E1,-1.569201331E0,9.491526722E0,-2.929310031E0,1.005645711E1
1.320621837E1,-2.066188203E0,8.983059865E0,-2.757770265E0,9.621319819E0
1.321620638E1,-2.397378444E0,8.755278071E0,-2.826697243E0,9.507498873E0
1.322619437E1,-2.574092557E0,8.710675510E0,-2.853493863E0,9.520727260E0
1.323618237E1,-2.445176070E0,8.733704769E0,-2.815682843E0,9.496554895E0
1.324617037E1,-2.202916862E0,8.778302068E0,-2.664615057E0,9.434596085E0
1.325615837E1,-1.944871196E0,8.909990135E0,-2.458503336E0,9.445352658E0
1.326614637E1,-1.693075472E0,9.247625908E0,-2.149212525E0,9.643868724E0
1.327613437E1,-1.407861156E0,9.897566732E0,-1.990051315E0,1.019334118E1
1.328612237E1,-1.184840457E0,1.052156404E1,-1.162973771E0,1.065174469E1
1.329611037E1,-1.319483561E0,1.017278699E1,1.918890701E0,1.043593664E1
1.330609837E1,-2.466139215E0,8.009811870E0,4.857726139E0,9.686920669E0
1.331608637E1,-3.313137931E0,3.416305912E0,1.517988347E0,4.995229489E0
1.332607437E1,-1.751970820E0,-1.784788903E0,-9.834078249E-1,2.687371231E0
1.333606237E1,2.336568717E0,-7.084256689E0,2.143201588E0,7.761414771E0
1.334605037E1,7.010568323E0,-1.485668037E1,4.443341567E0,1.701799942E1
1.335603937E1,7.231583719E0,-2.373175737E1,1.497427782E0,2.485426323E1
1.336602737E1,1.589098967E0,-2.469704380E1,-1.336298984E0,2.478416637E1
1.337601537E1,-5.276722117E0,-1.751995847E1,3.615173809E0,1.865106492E1
1.338600337E1,-3.574116707E0,-1.491686576E1,8.720210565E0,1.764452512E1
1.339599138E1,-1.686141551E0,-2.007879125E1,1.134378431E1,2.312319991E1
1.340597937E1,-2.928582345E0,-2.666433249E1,8.929497031E0,2.827187894E1
1.341596737E1,6.077760037E-1,-2.679713912E1,8.084519990E0,2.799670553E1
1.342595537E1,6.562014962E0,-2.059939459E1,8.357086778E0,2.317835191E1
1.343594337E1,8.558012311E0,-1.234887273E1,4.588491386E0,1.570950304E1
1.344593137E1,9.068615740E0,-8.527303904E0,1.425265247E0,1.252940878E1
1.345591937E1,7.883804373E0,-8.351086950E0,4.859331492E-1,1.149483169E1
1.346590737E1,6.601086057E0,-9.221727421E0,-5.461433905E-1,1.135398020E1
1.347589537E1,5.883190062E0,-1.098331867E1,-5.872241735E-1,1.247357392E1
1.348588337E1,4.288799072E0,-1.272761794E1,3.524368304E-1,1.343541096E1
1.349587137E1,1.303541712E0,-1.298791493E1,6.789123157E-1,1.307081012E1
1.350585938E1,-2.101093303E0,-1.011150349E1,1.352153855E0,1.041563325E1
1.351584737E1,-3.414381885E0,-4.980248403E0,1.554632408E0,6.235203264E0
1.352583537E1,-3.172506547E0,-7.240724087E-1,1.230709671E0,3.479040808E0
1.353582337E1,-2.830935598E0,2.792801519E0,3.136990267E-1,3.989027922E0
1.354581054E1,-3.207118263E0,5.213511962E0,-1.279354413E0,6.253244137E0
1.355579954E1,-2.999255886E0,7.782594332E0,-5.140491933E-1,8.356348304E0
1.356578754E1,-2.334828293E0,1.089507833E1,-2.167629939E0,1.135133360E1
1.357577554E1,-2.185450644E0,1.204038884E1,-3.412659588E0,1.270407034E1
1.358576354E1,-2.457164616E0,1.160469175E1,-2.822111857E-1,1.186533487E1
1.359575154E1,-1.669596123E0,1.075261911E1,2.412053640E0,1.114559876E1
1.360573954E1,-1.441677797E-1,1.057756400E1,2.857051309E0,1.095757212E1
1.361572754E1,9.801199356E-1,1.012257110E1,3.487841333E0,1.075137749E1
1.362571554E1,5.012239105E-1,8.010077333E0,3.900634877E0,8.923425169E0
1.363570354E1,-2.342981066E0,5.343465745E0,4.008417188E0,7.078813092E0
1.364569154E1,-5.433105315E0,3.634317593E0,3.222322193E0,7.287678509E0
1.365567954E1,-6.658562433E0,3.412511069E0,1.331031520E0,7.599561196E0
1.366566754E1,-5.860235063E0,5.199889119E0,-7.279977907E-1,7.868365944E0
1.367565554E1,-4.829799544E0,7.486372633E0,-3.435366080E0,9.548532816E0
1.368564354E1,-3.034903729E0,9.247423010E0,-5.333059455E0,1.109806272E1
1.369563154E1,-1.615614921E0,1.023460024E1,-6.083126830E0,1.201506079E1
1.370561954E1,-1.615014558E0,1.046411632E1,-6.163474005E0,1.225130255E1
1.371560754E1,-1.697688632E0,1.028378117E1,-5.528048894E0,1.179820438E1
1.372559554E1,-1.568379359E0,9.958028111E0,-4.260205311E0,1.094401603E1
1.373558354E1,-1.593136324E0,9.741356612E0,-2.916199404E0,1.029253763E1
1.374557154E1,-1.718940776E0,9.710976818E0,-1.844593640E0,1.003296336E1
1.375556054E1,-1.708829040E0,9.841010123E0,-1.193126985E0,1.005928074E1
1.376554854E1,-1.522092215E0,1.002188906E1,-9.302563423E-1,1.017941069E1
1.377553654E1,-1.261206556E0,1.019837206E1,-9.346171957E-1,1.031847586E1
1.378552454E1,-9.762574111E-1,1.026631788E1,-9.490166952E-1,1.035620558E1
1.379551254E1,-5.849801584E-1,1.010360273E1,-1.053109559E0,1.017516730E1
1.380550054E1,-1.257372098E-1,9.921564875E0,-1.477901298E0,1.003182195E1
1.381548854E1,2.463733086E-1,1.001909175E1,-1.988461457E0,1.021747906E1
1.382547654E1,4.170115797E-1,1.059446947E1,-2.460192012E0,1.088435697E1
1.383546454E1,3.890246129E-1,1.113102869E1,-2.126999538E0,1.133910344E1
1.384545254E1,-2.622761272E-1,1.077992795E1,-1.169669125E0,1.084637087E1
1.385544054E1,-1.847472224E0,9.404537110E0,-8.537016714E-1,9.622228350E0
1.386542854E1,-3.193358011E0,5.749313382E0,-2.571430027E-2,6.576686170E0
1.387541654E1,-3.424494060E0,-3.157496452E-2,-6.430206442E-1,3.484484480E0
1.388540454E1,-7.650106658E-1,-6.410698376E0,-3.848190030E0,7.516040281E0
1.389539254E1,5.031816167E0,-1.679958150E1,3.489902184E0,1.788084253E1
1.390538054E1,1.201850622E1,-3.145681802E1,9.901603650E0,3.510010893E1
1.391536854E1,7.943521986E0,-3.961060121E1,4.497029239E-1,4.040175123E1
1.392535654E1,-1.087526680E1,-3.302527749E1,2.089102271E0,3.483252402E1
1.393534454E1,-1.522592620E1,-2.607752931E1,1.558770629E1,3.398298031E1
1.394533254E1,5.389197403E0,-1.740528404E1,1.423853262E1,2.312408208E1
1.395532154E1,1.122511390E1,-1.005301262E1,1.261277745E1,1.965065902E1
1.396530954E1,9.332798206E0,-8.153945151E0,2.064807968E0,1.256389175E1
1.397529754E1,8.180793226E0,-8.704599668E0,1.603357987E0,1.205264245E1
1.398528554E1,6.914337187E0,-1.194006582E1,2.699803308E0,1.405923783E1
1.399527354E1,7.898641098E0,-1.677498343E1,-8.059410292E-1,1.855904473E1
1.400526154E1,3.320503084E0,-2.125804835E1,-1.453514315E0,2.156485716E1
1.401524954E1,-3.581278669E0,-2.288793632E1,2.117190541E0,2.326296804E1
1.402523754E1,-5.183951363E0,-1.798667971E1,2.322639772E0,1.886236078E1
1.403522554E1,-3.401932578E0,-1.062988255E1,-8.565118432E-2,1.116131194E1
1.404521354E1,-1.816270604E0,-5.607116114E0,-1.147816180E0,6.004670849E0
1.405520154E1,-8.409831002E-1,-2.932993777E0,-5.943507600E-1,3.108529861E0
1.406518954E1,-4.219216329E-1,-5.214014822E-1,7.656972751E-2,6.750853969E-1
1.407517754E1,1.162908867E-1,1.709789591E0,6.672215389E-1,1.839045567E0
1.408516554E1,5.472490990E-1,3.092182469E0,8.649903059E-1,3.257189314E0
1.409515354E1,-3.366706905E-1,4.664996940E0,6.721568812E-1,4.725181317E0
1.410514154E1,-1.649541051E0,7.369041234E0,4.030520833E-1,7.562156132E0
1.411512954E1,-2.534831135E0,8.814198124E0,7.482564926E-2,9.171753177E0
1.412511754E1,-3.324369263E0,8.960886054E0,9.742068657E-1,9.607184233E0
1.413510554E1,-3.051706580E0,9.482860563E0,2.214665673E0,1.020501355E1
1.414509454E1,-2.345943558E0,9.807994405E0,3.216788388E0,1.058526962E1
1.415508254E1,-6.302626044E-1,9.513074881E0,5.692969027E0,1.110431092E1
1.416507054E1,7.598836809E-2,6.900843567E0,7.072485074E0,9.881673001E0
1.417505854E1,-3.378436127E0,4.127401010E0,5.921391091E0,7.969450559E0
1.418504654E1,-6.465425391E0,3.460819595E0,2.705215491E0,7.816469063E0
1.419503454E1,-6.662271906E0,4.433218575E0,4.181212351E-2,8.002564722E0
1.420502254E1,-5.467496299E0,6.621337304E0,-2.799436355E0,9.031747747E0
1.421501054E1,-4.072277846E0,8.581319897E0,-5.883048559E0,1.117285811E1
1.422499854E1,-2.992294776E0,9.664549341E0,-7.511831410E0,1.260099016E1
1.423498654E1,-2.912605705E0,1.020835443E1,-7.700285416E0,1.311442594E1
1.424497454E1,-3.240566676E0,1.069262434E1,-7.107281270E0,1.324186296E1
1.425496254E1,-3.583500026E0,1.114501523E1,-5.791571794E0,1.306120748E1
1.426495054E1,-3.734939404E0,1.134671961E1,-3.869208432E0,1.255661547E1
1.427493854E1,-3.653944649E0,1.133283715E1,-2.135492180E0,1.209730698E1
1.428492654E1,-3.152257347E0,1.117572480E1,-1.375987253E0,1.169302750E1
1.429491454E1,-2.179049259E0,1.087598250E1,-1.319200848E0,1.117029730E1
1.430490254E1,-9.827682857E-1,1.043091115E1,-1.281060630E0,1.055513417E1
1.431489054E1,2.823342696E-2,1.001456718E1,-1.160216955E0,1.008158997E1
1.432487854E1,4.498904733E-1,9.439116374E0,-7.148870176E-1,9.476834007E0
1.433486754E1,7.692365947E-1,8.770289628E0,-6.541549122E-1,8.828228800E0
1.434485554E1,7.815666184E-1,8.392773505E0,-1.182828284E0,8.511672940E0
1.435484354E1,7.292755535E-1,8.434334929E0,-1.972360126E0,8.692528573E0
1.436483154E1,4.648543753E-1,8.695924155E0,-2.529918889E0,9.068388836E0
1.437481954E1,1.881996524E-1,9.268536136E0,-2.193783219E0,9.526482353E0
1.438480754E1,3.073599140E-1,9.881911397E0,-1.155895132E0,9.954031170E0
1.439479554E1,2.129686041E-1,1.023756244E1,-5.363136363E-1,1.025381259E1
1.440478354E1,-9.202314372E-1,1.003888575E1,-4.821999943E-1,1.009250067E1
1.441477154E1,-2.103219058E0,8.380263972E0,-1.223613783E0,8.726372977E0
1.442475954E1,-2.067038242E0,4.916770445E0,1.062643737E0,5.438427200E0
1.443474754E1,-8.019394872E-1,4.581270075E-1,3.279443058E-1,9.800687546E-1
1.444473554E1,-9.655214846E-3,-4.704884892E0,-2.044873640E0,5.130062696E0
1.445472354E1,2.960903999E0,-1.208084104E1,2.047977050E0,1.260586700E1
1.446471154E1,7.401809615E0,-2.252981541E1,5.098426479E0,2.425640783E1
1.447469954E1,5.718933588E0,-3.640519033E1,3.819242220E0,3.704903097E1
1.448468754E1,-6.040399472E0,-4.871651224E1,1.093622987E1,5.029300264E1
1.449467554E1,-1.298409787E1,-4.368698526E1,1.099251634E1,4.688256492E1
1.450466354E1,4.324768804E0,-2.221789219E1,1.368404700E1,2.644979207E1
1.451465154E1,1.536142840E1,-8.096703833E0,2.192650672E1,2.796965843E1
1.452464054E1,1.367982180E1,-2.649537719E0,5.861579338E0,1.511673533E1
1.453462854E1,6.354836417E0,2.104037522E0,-5.964060563E0,8.965541711E0
1.454461692E1,6.893859214E-1,1.611864517E0,-1.688500172E0,2.434007600E0
1.455460492E1,6.208230056E-1,-6.767943957E0,2.207453132E0,7.145861455E0
1.456459292E1,1.024758165E-1,-1.989047115E1,1.227635205E0,1.992858329E1
1.457458092E1,-4.488572119E0,-2.987115605E1,-7.026704299E-1,3.021468168E1
1.458456892E1,-5.593818961E0,-2.651650552E1,-3.992322434E-1,2.710304894E1
1.459455692E1,-4.285899146E0,-1.563009393E1,-3.396742590E-1,1.621061832E1
1.460454492E1,-1.598787365E0,-8.537083957E0,-7.274054678E-1,8.715907425E0
1.461453292E1,1.089130600E0,-5.228922299E0,-9.421808615E-2,5.341976312E0
1.462452092E1,2.607450922E0,-2.829062442E0,1.167047526E0,4.020496803E0
1.463450892E1,3.576748247E0,3.191755289E-1,2.078858242E0,4.149295438E0
1.464449692E1,4.299227581E0,3.507017276E0,3.209382305E0,6.409575864E0
1.465448492E1,3.149025006E0,5.781283033E0,2.911989993E0,7.198560809E0
1.466447292E1,7.917460361E-1,7.238621428E0,2.171069418E0,7.598555414E0
1.467446092E1,-1.886481923E0,7.525365960E0,5.729633993E-1,7.779346627E0
1.468444892E1,-4.414406912E0,8.704110841E0,-1.726616124E0,9.911091623E0
1.469443692E1,-6.221891198E0,1.140397555E1,-3.895899217E0,1.356247098E1
1.470442492E1,-5.743175560E0,1.157196020E1,-1.731734192E0,1.303430979E1
1.471441392E1,-4.342041187E0,1.012092218E1,7.185566571E-1,1.103642656E1
1.472440192E1,-3.204735523E0,8.743352090E0,1.933950790E0,9.510872789E0
1.473438992E1,-2.008080035E0,7.747198797E0,2.144659883E0,8.285592353E0
1.474437792E1,-2.191893984E0,6.272964288E0,2.006101338E0,6.941103858E0
1.475436592E1,-4.015641131E0,4.983939750E0,2.407910888E0,6.838352431E0
1.476435392E1,-5.052674940E0,3.835729614E0,3.372222583E0,7.184304480E0
1.477434192E1,-5.198331420E0,3.459851296E0,2.402084137E0,6.690532770E0
1.478432992E1,-5.583401561E0,4.631067302E0,-1.170921307E0,7.347939443E0
1.479431792E1,-4.950541039E0,6.705926049E0,-4.499899345E0,9.472401747E0
1.480430592E1,-3.824943548E0,9.078053146E0,-6.359731121E0,1.172550306E1
1.481429392E1,-2.954858855E0,1.086208717E1,-6.156118208E0,1.283019563E1
1.482428192E1,-2.174472789E0,1.189176314E1,-4.708746977E0,1.297361401E1
1.483426992E1,-1.573816684E0,1.238376424E1,-3.443449271E0,1.294958912E1
1.484425792E1,-1.370585302E0,1.211430115E1,-2.568842635E0,1.245928364E1
1.485424592E1,-1.488123693E0,1.104093011E1,-1.958524444E0,1.131160766E1
1.486423392E1,-1.902350390E0,9.787832621E0,-1.328870389E0,1.005915011E1
1.487422192E1,-2.411198777E0,9.088444233E0,-8.830852456E-1,9.444233038E0
1.488420992E1,-2.630316752E0,8.558009972E0,-1.085943283E0,9.018723508E0
1.489419792E1,-2.409971154E0,8.334507755E0,-1.915219819E0,8.884821182E0
1.490418692E1,-1.940940405E0,8.450546919E0,-2.793970962E0,9.109624944E0
1.491417492E1,-1.377546705E0,8.768740700E0,-3.278018969E0,9.462233180E0
1.492416292E1,-8.015469928E-1,9.124001736E0,-3.406417685E0,9.772080981E0
1.493415092E1,-5.093256663E-1,9.475807652E0,-3.173248267E0,1.000599060E1
1.494413892E1,-5.330527903E-1,9.721703535E0,-2.411617145E0,1.003053150E1
1.495412692E1,-9.959617969E-1,9.728770480E0,-1.959362789E0,9.973966989E0
1.496411492E1,-2.225610783E0,9.277140314E0,-6.235233960E-1,9.560724721E0
1.497410292E1,-3.360200123E0,7.097626932E0,1.067001666E0,7.925007602E0
1.498409092E1,-2.324740238E0,2.794555099E0,3.264335023E0,4.885676874E0
1.499407892E1,5.035141186E-1,-1.876714150E0,3.722478110E0,4.199098206E0
1.500406692E1,4.374302614E0,-7.512679256E0,1.987976139E0,8.917786838E0
1.501405492E1,9.920350993E0,-1.411004707E1,2.534135024E0,1.743354905E1
1.502404292E1,1.452994966E1,-1.812942311E1,-3.199692007E0,2.345279191E1
1.503403092E1,1.118762857E1,-2.158835522E1,-4.464065268E0,2.472140758E1
1.504401892E1,7.023758765E-1,-2.555736802E1,8.619780543E0,2.698097494E1
1.505400692E1,-7.688550639E0,-2.941059660E1,1.265844421E1,3.292921519E1
1.506399492E1,-1.133416681E1,-3.264549615E1,9.533417344E0,3.584798185E1
1.507398292E1,5.738216975E-1,-2.888925651E1,1.418285894E1,3.218807078E1
1.508397092E1,7.355256423E0,-1.745912754E1,1.580005494E1,2.466906297E1
1.509395992E1,5.260616546E0,-7.971392739E0,4.573563445E0,1.058936595E1
1.510394792E1,3.211809484E0,-3.545580248E0,-1.253874001E0,4.945610121E0
1.511393592E1,1.575256708E0,-5.889165916E0,1.125998318E-2,6.096214864E0
1.512392392E1,1.263382158E0,-1.133495852E1,4.599238569E-1,1.141441847E1
1.513391192E1,6.620512846E-1,-1.591910893E1,-1.211168277E0,1.597883818E1
1.514389992E1,-1.126376341E0,-1.609552177E1,-3.134336801E0,1.643650242E1
1.515388792E1,-2.588267670E0,-1.481978561E1,-3.169721226E0,1.537440431E1
1.516387592E1,-3.239838990E0,-1.122721889E1,-2.406443236E0,1.193054776E1
1.517386392E1,-2.470352719E0,-6.255034971E0,-1.334267954E0,6.856265457E0
1.518385192E1,-1.350190799E0,-3.181081781E0,-2.525231177E-1,3.464976828E0
1.519383992E1,-1.228942935E0,-4.940827060E-1,1.293516954E0,1.851379099E0
1.520382792E1,-1.140969822E0,2.049044459E0,2.009203870E0,3.088251207E0
1.521381592E1,-3.347399399E-1,4.345469994E0,2.528369962E0,5.038632251E0
1.522380392E1,5.510100281E-1,6.499815205E0,1.839528782E0,6.777542024E0
1.523379192E1,1.069084445E-1,8.055379806E0,9.246973944E-1,8.108985048E0
1.524377992E1,-8.919126409E-1,9.617586844E0,-5.616900406E-1,9.675173413E0
1.525376792E1,-1.294649559E0,1.038548764E1,-7.816348115E-1,1.049501901E1
1.526375592E1,-2.310724901E0,9.802451829E0,9.920361956E-1,1.011986399E1
1.527374492E1,-2.990110841E0,9.066102607E0,2.412581059E0,9.846599752E0
1.528373292E1,-2.735559617E0,8.666956463E0,2.605277805E0,9.454464194E0
1.529372092E1,-2.041435769E0,8.508549544E0,2.729582008E0,9.165887479E0
1.530370892E1,-1.020147635E0,8.050761091E0,2.561560512E0,8.509820656E0
1.531369692E1,-1.676453153E0,6.927678194E0,1.928138657E0,7.383829563E0
1.532368492E1,-3.117715798E0,6.027177747E0,1.225607537E0,6.895588244E0
1.533367292E1,-4.590076859E0,5.477493283E0,-1.681350781E-1,7.148426935E0
1.534366092E1,-6.096323411E0,5.545025700E0,-3.297975808E0,8.876323202E0
1.535364892E1,-6.799920040E0,6.181560613E0,-6.545895358E0,1.128270137E1
1.536363692E1,-5.927748184E0,7.325237403E0,-7.493375258E0,1.203943414E1
1.537362492E1,-4.732830782E0,8.642403420E0,-5.940805017E0,1.150582410E1
1.538361292E1,-3.360353028E0,9.699354892E0,-3.920652820E0,1.098821989E1
1.539360092E1,-2.141332671E0,1.018534213E1,-2.521186365E0,1.070900932E1
1.540358892E1,-1.536705869E0,1.016238128E1,-2.061551799E0,1.048262630E1
1.541357692E1,-1.182601705E0,1.009227083E1,-2.024855990E0,1.036110607E1
1.542356492E1,-6.332924853E-1,1.027194290E1,-1.766426892E0,1.044194112E1
1.543355292E1,-1.424158077E-1,1.058780598E1,-1.066383177E0,1.064232544E1
1.544354092E1,-2.390400231E-2,1.079167734E1,-2.085013314E-1,1.079371780E1
1.545352892E1,-3.939213637E-1,1.061583987E1,-1.765625238E-2,1.062316064E1
1.546351792E1,-7.417051260E-1,1.018968778E1,-4.633552954E-1,1.022714827E1
1.547350592E1,-8.941616262E-1,9.896894302E0,-1.249610504E0,1.001546645E1
1.548349392E1,-1.059467091E0,9.887363341E0,-2.317681480E0,1.021048832E1
1.549348192E1,-1.191413020E0,1.001371933E1,-3.515482290E0,1.067954379E1
1.550346992E1,-1.556900397E0,1.019777448E1,-4.453368664E0,1.123614861E1
1.551345792E1,-2.497941636E0,1.015183992E1,-3.220248186E0,1.093935851E1
1.552344592E1,-3.582838122E0,8.930472347E0,-8.887022272E-1,9.663325359E0
1.553343392E1,-3.991058559E0,6.345388486E0,3.460072321E-1,7.504147151E0
1.554342162E1,-1.347171589E0,1.625907190E0,3.097413388E0,3.748655116E0
1.555340962E1,1.380896867E0,-5.030330390E0,5.569403912E0,7.630816465E0
1.556339762E1,5.192346210E0,-1.431561997E1,6.676014032E0,1.662728473E1
1.557338562E1,1.125761974E1,-2.394626598E1,6.306978711E0,2.720175798E1
1.558337362E1,1.094020364E1,-3.004920143E1,-2.143531371E0,3.205054272E1
1.559336162E1,2.432999390E-1,-2.980260563E1,-3.307440989E0,2.998655804E1
1.560334962E1,-9.476382433E0,-2.651193767E1,8.566442242E0,2.942904341E1
1.561333762E1,-1.024279570E0,-2.607511090E1,1.713530523E1,3.121825175E1
1.562332562E1,1.300026074E1,-2.329782614E1,1.836401574E1,3.238877207E1
1.563331362E1,1.170880844E1,-1.807915576E1,8.654466226E0,2.321318276E1
1.564330162E1,5.878680689E0,-1.200798824E1,-4.938824388E-1,1.337888591E1
1.565329062E1,2.332924732E0,-1.056573859E1,1.290885999E0,1.089696088E1
1.566327862E1,1.742143113E0,-1.254738804E1,2.966133456E0,1.301037882E1
1.567326662E1,2.074333813E0,-1.348412836E1,8.889970730E-1,1.367168220E1
1.568325462E1,1.858035219E0,-1.206353445E1,-1.459755633E0,1.229276392E1
1.569324262E1,1.382341276E0,-1.115779022E1,-1.741165166E0,1.137711766E1
1.570323062E1,7.184102574E-1,-1.089510523E1,-1.378762926E0,1.100547221E1
1.571321862E1,-5.641346884E-1,-1.011561876E1,-3.907561196E-1,1.013886982E1
1.572320662E1,-1.380813544E0,-7.271680416E0,1.294598835E0,7.513984845E0
1.573319462E1,-4.621405363E-1,-3.691964707E0,2.405691869E0,4.430748317E0
1.574318262E1,6.782001248E-1,-4.547414696E-1,2.093926078E0,2.247503423E0
1.575317062E1,9.294067419E-1,2.680369502E0,1.353225212E0,3.143150654E0
1.576315862E1,1.933490029E-1,5.333362926E0,2.496533042E-1,5.342702566E0
1.577314662E1,-1.705137547E0,7.258216617E0,-1.216237813E0,7.554365422E0
1.578313462E1,-3.874689612E0,9.149055301E0,-1.980625604E0,1.013120478E1
1.579312263E1,-5.575130675E0,1.032218218E1,-1.606136000E0,1.184099657E1
1.580311062E1,-5.873869600E0,1.077228914E1,-3.702725923E-1,1.227524579E1
1.581309862E1,-5.245456470E0,1.168260005E1,8.536958241E-1,1.283459209E1
1.582308662E1,-4.152873235E0,1.121688336E1,2.535069117E0,1.222666773E1
1.583307562E1,-2.928399619E0,1.024779624E1,3.144623222E0,1.111222333E1
1.584306362E1,-2.333497759E0,7.939689721E0,2.729983127E0,8.714166198E0
1.585305162E1,-2.483415691E0,5.716793507E0,2.363712954E0,6.666049837E0
1.586303962E1,-3.316422312E0,4.911445971E0,1.829401404E0,6.202230887E0
1.587302762E1,-3.698539024E0,4.879395627E0,4.379914626E-1,6.138365346E0
1.588301562E1,-3.797095014E0,5.421408545E0,-1.641298816E0,6.819344760E0
1.589300362E1,-4.132499489E0,6.539645269E0,-3.294165763E0,8.408093740E0
1.590299163E1,-3.841764818E0,7.954883126E0,-3.638420584E0,9.553922064E0
1.591297962E1,-2.691283623E0,9.300774760E0,-3.210473396E0,1.020071361E1
1.592296762E1,-2.010989610E0,1.023826645E1,-3.083061397E0,1.087986427E1
1.593295562E1,-1.947450549E0,1.050928957E1,-3.144232628E0,1.114109194E1
1.594294362E1,-1.928389795E0,1.035180300E1,-2.915558549E0,1.092606948E1
1.595293162E1,-2.157721394E0,9.948534572E0,-2.438646777E0,1.046786033E1
1.596291962E1,-2.645539100E0,9.674215373E0,-1.924011254E0,1.021230334E1
1.597290762E1,-3.083216348E0,9.524016191E0,-1.559674170E0,1.013142097E1
1.598289562E1,-3.359739655E0,9.406946747E0,-1.289459571E0,1.007180240E1
1.599288362E1,-3.371590499E0,9.344366337E0,-1.381371369E0,1.002960575E1
1.600287162E1,-3.074918565E0,9.335018978E0,-1.754021731E0,9.983701505E0
1.601285962E1,-2.641222394E0,9.287812652E0,-1.957820001E0,9.852541740E0
1.602284862E1,-2.064495288E0,9.196677949E0,-1.659292452E0,9.570489932E0
1.603283662E1,-1.522301399E0,9.170492948E0,-1.073051927E0,9.357712482E0
1.604282462E1,-1.417128116E0,9.383847322E0,-9.061343850E-1,9.533410837E0
1.605281262E1,-1.787248242E0,9.918594489E0,-9.535493106E-1,1.012334081E1
1.606280062E1,-2.790523736E0,9.819859575E0,-9.063146254E-1,1.024880827E1
1.607278862E1,-4.017004994E0,7.999038960E0,3.244561493E-2,8.951089661E0
1.608277663E1,-2.303542327E0,3.407663727E0,2.670169912E0,4.903905249E0
1.609276462E1,1.232621419E0,-1.333240598E0,2.143716143E0,2.809342442E0
1.610275262E1,4.381592923E0,-6.965458809E0,3.500543239E0,8.942582173E0
1.611274062E1,9.951630088E0,-1.759730076E1,1.124282979E1,2.313225361E1
1.612272862E1,1.508477207E1,-3.054633872E1,6.408470002E0,3.466551089E1
1.613271662E1,1.091307489E1,-4.018382481E1,1.436550666E0,4.166411715E1
1.614270462E1,-5.507124048E0,-3.236823288E1,6.636561114E0,3.349738585E1
1.615269262E1,-8.700189114E0,-2.193160081E1,6.893765513E0,2.458073245E1
1.616268062E1,-1.248657261E0,-1.819803551E1,6.498815331E0,1.936394180E1
1.617266862E1,3.192425964E0,-1.781100479E1,9.104493086E0,2.025624026E1
1.618265662E1,5.464492584E0,-1.622780216E1,6.517798317E0,1.832167943E1
1.619264462E1,4.972623049E0,-1.334559262E1,2.542311771E0,1.446703741E1
1.620263362E1,4.431866114E0,-1.182030549E1,2.286015591E0,1.282914363E1
1.621262162E1,4.182621237E0,-1.147467306E1,-7.775264847E-1,1.223793241E1
1.622260962E1,3.320280890E0,-1.150521307E1,-3.603292559E0,1.250511536E1
1.623259762E1,3.724594802E0,-1.068221630E1,-4.073541137E0,1.202397974E1
1.624258562E1,1.444000603E0,-9.062289053E0,-2.833126257E0,9.604000469E0
1.625257362E1,-8.289255568E-1,-5.767080731E0,3.462311804E-2,5.826451450E0
1.626256162E1,1.389268911E0,-2.816909004E0,-7.859257177E-2,3.141849971E0
1.627254962E1,9.568091333E-3,-6.007657403E-1,-3.953537853E-1,7.192465771E-1
1.628253762E1,-1.521883177E0,1.100362955E0,-1.723405418E0,2.548931790E0
1.629252562E1,-2.393912946E0,2.735326898E0,-1.284929148E0,3.855369677E0
1.630251362E1,-2.940683742E0,4.733834456E0,2.750465193E-1,5.579646953E0
1.631250162E1,-3.753944024E0,6.965969270E0,-5.262073088E-1,7.930555954E0
1.632248962E1,-4.147588522E0,8.857690299E0,-1.067481723E0,9.838733923E0
1.633247762E1,-4.346666919E0,8.960397812E0,1.342444115E0,1.004909938E1
1.634246562E1,-3.703881918E0,9.004482309E0,2.688019999E0,1.010073732E1
1.635245362E1,-1.829354042E0,9.433809441E0,2.983572192E0,1.006205743E1
1.636244162E1,1.771972391E-1,9.377529990E0,3.517336442E0,1.001704164E1
1.637242963E1,1.776137070E0,8.423352689E0,3.972393077E0,9.480898700E0
1.638241862E1,7.502562404E-1,7.672911091E0,3.842634591E0,8.614075089E0
1.639240662E1,-1.962416790E0,7.656150633E0,2.798096758E0,8.384334656E0
1.640239462E1,-3.650140159E0,7.626039811E0,9.088432539E-1,8.503293623E0
1.641238262E1,-4.324958839E0,7.874276919E0,-1.545280664E0,9.115777437E0
1.642237062E1,-4.496991524E0,8.519806019E0,-3.548859367E0,1.026666597E1
1.643235862E1,-4.437408397E0,9.144640068E0,-4.863889981E0,1.126820576E1
1.644234662E1,-4.024540885E0,9.643861892E0,-4.653777888E0,1.143934658E1
1.645233462E1,-3.477544971E0,9.944219327E0,-3.114675538E0,1.098553689E1
1.646232262E1,-3.189160879E0,9.942111990E0,-1.914785517E0,1.061521274E1
1.647231062E1,-2.758667521E0,9.643568362E0,-1.780290055E0,1.018715318E1
1.648229863E1,-2.369973275E0,9.210541697E0,-2.173694233E0,9.755808439E0
1.649228662E1,-2.217568523E0,8.847631919E0,-2.561576300E0,9.474168769E0
1.650227462E1,-2.135524047E0,8.697904606E0,-2.538031316E0,9.308899530E0
1.651226262E1,-2.020740281E0,8.809021000E0,-2.275109657E0,9.319783592E0
1.652225062E1,-1.836437944E0,9.029377999E0,-2.030500161E0,9.435311456E0
1.653223862E1,-1.732856419E0,9.195960495E0,-1.794349831E0,9.528282748E0
1.654222650E1,-1.626520270E0,9.247543463E0,-1.481405827E0,9.505639984E0
1.655221450E1,-1.494854276E0,9.342691110E0,-1.047864314E0,9.519374249E0
1.656220250E1,-1.423807536E0,9.632988995E0,-6.608993831E-1,9.760045741E0
1.657219150E1,-1.635461979E0,1.002841222E1,-5.333303869E-1,1.017488225E1
1.658217950E1,-2.058850240E0,1.001193827E1,-1.596026748E-2,1.022144936E1
