"Time (s)","Linear Acceleration x (m/s^2)","Linear Acceleration y (m/s^2)","Linear Acceleration z (m/s^2)","Absolute acceleration (m/s^2)"
4.673458345E-3,-5.877495459E-1,2.596485347E-1,-1.736280402E0,1.851360722E0
1.470745838E-2,-3.790391766E-1,1.158555615E-1,-1.485671078E0,1.537631868E0
2.474145836E-2,-2.181256291E-1,-1.195112407E-1,-1.158343946E0,1.184745721E0
3.477445833E-2,-3.143066255E-1,-4.137495643E-1,-9.959767073E-1,1.123364125E0
4.480845836E-2,-2.868154295E-2,-3.723530316E-1,-8.024215901E-1,8.850705166E-1
5.484245834E-2,7.660948858E-2,-2.307849240E-1,-4.516383523E-1,5.129404411E-1
6.487645837E-2,1.197513420E-1,-7.711308002E-3,-2.490557188E-1,2.764572286E-1
7.490945834E-2,2.035681086E-1,2.699513286E-1,-2.994294816E-1,4.516322720E-1
8.494345838E-2,6.712456658E-1,3.571581647E-1,-5.530653244E-1,9.402201612E-1
9.497745836E-2,9.462389754E-1,2.266222912E-1,-5.592399842E-1,1.122263437E0
1.050114583E-1,1.061202398E0,-5.662502110E-2,-2.316415411E-1,1.087664804E0
1.150454584E-1,1.139387273E0,-3.034307313E-1,3.108976257E-1,1.219397761E0
1.250784583E-1,1.012019567E0,-5.242137006E-1,5.197841424E-1,1.252660833E0
1.351124584E-1,6.519268307E-1,-6.052642956E-1,8.119794488E-2,8.932785492E-1
1.451464584E-1,4.503325228E-1,-5.505285099E-1,-5.423888934E-1,8.944644951E-1
1.551804583E-1,5.187613182E-1,-4.860813761E-1,-1.148684345E0,1.350875322E0
1.652134584E-1,6.239034650E-1,-4.856463432E-1,-1.401431996E0,1.609074126E0
1.752474583E-1,8.718301595E-1,-6.754949105E-1,-1.271735491E0,1.683357466E0
1.852814584E-1,1.310321413E0,-1.101675071E0,-9.118434602E-1,1.939610441E0
1.953154583E-1,1.752344604E0,-1.554085840E0,-4.221286243E-1,2.379934239E0
2.053484584E-1,1.822996072E0,-1.683236800E0,5.185363466E-1,2.534853200E0
2.153824584E-1,1.481317241E0,-1.274886263E0,1.147081624E0,2.266149157E0
2.254164583E-1,1.676376555E0,-6.740304753E-1,1.185478535E0,2.160998563E0
2.354504584E-1,2.366707021E0,-8.337690979E-2,1.088205425E0,2.606231931E0
2.454844583E-1,8.835762656E-1,-4.572290213E-1,7.816212898E-1,1.265186641E0
2.555174584E-1,4.081071474E-2,-7.435013907E-1,1.152597302E-1,7.534883130E-1
2.655514583E-1,1.043235293E0,-5.364820361E-5,-1.021455950E-1,1.048224023E0
2.755854584E-1,2.093353636E0,6.766922741E-1,2.384757668E-1,2.212896873E0
2.856194584E-1,1.998838803E0,1.025423724E0,8.188183522E-1,2.391090519E0
2.956524583E-1,1.231886716E0,8.468953662E-1,9.056512588E-1,1.747850350E0
3.056864584E-1,6.571012511E-1,5.137559554E-1,7.154752475E-1,1.098923139E0
3.157204583E-1,2.744187110E-1,2.916507845E-1,-1.384819472E-1,4.237252161E-1
3.257544584E-1,2.554932109E-1,1.090227246E-1,-1.081851840E0,1.116945003E0
3.357874583E-1,6.154272681E-1,-2.377274694E-1,-1.459575539E0,1.601757106E0
3.458214584E-1,7.224272215E-1,-4.530185875E-1,-1.714329370E0,1.914693740E0
3.558554584E-1,3.977365988E-1,-5.384803221E-1,-2.079444133E0,2.184546489E0
3.658894583E-1,-1.149109438E-2,-3.944056593E-1,-2.196130584E0,2.231295008E0
3.759234584E-1,-8.035012785E-1,-8.751304742E-1,4.096161675E-1,1.256683356E0
3.859564583E-1,-5.649869201E-1,-1.391663345E0,-8.888054305E-1,1.745254188E0
3.959904584E-1,-1.076329145E0,-1.102108057E0,-1.254922991E0,1.986946983E0
4.060244584E-1,-1.788896718E0,-3.592936409E-1,-6.352993959E-1,1.932058154E0
4.160584583E-1,-2.086433018E0,6.138663539E-1,-9.830818427E-1,2.386730933E0
4.260914584E-1,-1.930490554E0,1.388912230E0,-6.012627536E-1,2.453036457E0
4.361254583E-1,-1.548852874E0,1.889746716E0,1.052142137E-1,2.445640593E0
4.461594584E-1,-1.277218717E0,1.830426421E0,1.551736429E0,2.718388213E0
4.561934583E-1,-1.951733196E0,7.021396489E-1,3.151310683E0,3.772667700E0
4.662264584E-1,-1.577204561E0,1.180450514E-2,3.494439331E0,3.833903991E0
4.762604584E-1,-8.649791962E-1,-8.581132494E-1,1.730972884E0,2.116793444E0
4.862944583E-1,-1.257815463E0,-1.734961124E0,5.101508546E-1,2.202826306E0
4.963284584E-1,-2.757840140E0,-1.555528933E0,1.152702552E-1,3.168381247E0
5.063624583E-1,-4.052237976E0,-1.281794456E-1,-9.035000682E-1,4.153718209E0
5.163954584E-1,-4.199101907E0,1.975856615E0,-7.391576403E-1,4.699236130E0
5.264294583E-1,-2.589504648E0,2.491393340E0,-1.645839179E-1,3.597174302E0
5.364634584E-1,-2.622924628E-1,1.496370606E0,-5.743135214E-2,1.520269938E0
5.464974584E-1,1.192564044E0,-2.183180755E-1,2.483312488E-1,1.237554117E0
5.565304583E-1,6.723071547E-1,-1.041077159E0,8.545091718E-1,1.505332018E0
5.665644584E-1,-9.604137590E-2,-8.623026332E-1,8.780120552E-2,8.720658397E-1
5.765984583E-1,-2.584663190E-1,-1.123784270E0,-9.610331619E-1,1.501093156E0
5.866324584E-1,-3.589932768E-2,-1.397803214E0,-1.014971972E0,1.727805166E0
5.966664584E-1,3.186298740E-1,-1.356318681E0,-1.369721376E0,1.953781464E0
6.066994584E-1,1.094392363E0,-6.159413114E-1,-2.212064831E0,2.543680240E0
6.167334584E-1,1.654120882E0,6.196955162E-1,-2.656503507E0,3.190164464E0
6.267674583E-1,1.793187551E0,1.840426622E0,-2.417574581E0,3.528081433E0
6.368014584E-1,1.395048883E0,1.689668445E0,-1.485298026E-1,2.196178942E0
6.468344583E-1,1.286743685E0,9.624750853E-1,1.365801988E0,2.108905562E0
6.568684584E-1,9.865084572E-1,6.537868300E-1,2.331119989E0,2.614336734E0
6.669024584E-1,2.030685371E-1,-2.541553679E-1,3.192500224E0,3.209032481E0
6.769364583E-1,-2.155980970E-1,-9.835408491E-1,3.412334483E0,3.557788887E0
6.869694584E-1,-2.670852428E-1,-9.255496261E-1,3.483607364E0,3.614345985E0
6.970034583E-1,-2.851752124E-1,-8.136254400E-1,3.313416551E0,3.423746559E0
7.070374584E-1,-4.592077191E-1,-7.733980581E-1,2.621428984E0,2.771444786E0
7.170714583E-1,-4.314842425E-1,-5.889564112E-1,1.653155215E0,1.807199621E0
7.271054583E-1,-4.683597811E-1,-4.171704778E-1,6.458635604E-1,9.002954131E-1
7.371384584E-1,-5.128288794E-1,-5.342486921E-1,-4.649314123E-1,8.744005619E-1
7.471724583E-1,-3.038255645E-1,-4.079397708E-1,-1.559555326E0,1.640407767E0
7.572064584E-1,-1.823601843E-1,1.829272181E-2,-2.552205552E0,2.558777646E0
7.672404583E-1,-4.408041926E-1,4.525227436E-1,-2.930097651E0,2.997425131E0
7.772734584E-1,-3.766238379E-1,7.081732446E-1,-2.470253901E0,2.597211812E0
7.873074583E-1,1.996210188E-2,8.304794544E-1,-1.498292293E0,1.713176700E0
7.973414583E-1,1.100951770E-1,8.128097534E-1,-2.230198216E-1,8.500108729E-1
8.073754584E-1,2.339880288E-2,6.471037549E-1,6.713118124E-1,9.327112753E-1
8.174094583E-1,-5.863573238E-2,6.102379373E-1,1.080548496E0,1.242341958E0
8.274424584E-1,-3.569217910E-1,6.155176806E-1,1.102748619E0,1.312367973E0
8.374764583E-1,-8.310827409E-1,5.206922150E-1,8.319886208E-1,1.286088632E0
8.475104584E-1,-1.194679567E0,4.521429670E-1,3.329123926E-1,1.320046663E0
8.575444584E-1,-1.360180328E0,5.574524903E-1,-2.020715868E-1,1.483804816E0
8.675774583E-1,-1.331197873E0,8.444963998E-1,-5.317843831E-1,1.663747750E0
8.776114584E-1,-9.968143210E-1,1.216185772E0,-6.428709555E-1,1.698831860E0
8.876454583E-1,-6.633022964E-1,1.586154894E0,-3.285082698E-1,1.750364239E0
8.976794584E-1,-6.812378995E-1,1.707522626E0,1.847269911E-1,1.847658695E0
9.077134583E-1,-7.844715151E-1,1.644249028E0,3.446471697E-1,1.854112213E0
9.177464584E-1,-1.026496834E0,1.478349195E0,3.778482449E-1,1.839016419E0
9.277804584E-1,-1.329120942E0,1.326256683E0,6.044752139E-1,1.972538860E0
9.378143334E-1,-1.477817536E0,1.142723986E0,6.564978915E-1,1.980088953E0
9.478483333E-1,-1.359058394E0,9.602475885E-1,5.721319252E-1,1.759673290E0
9.578813334E-1,-1.154090096E0,8.984811106E-1,5.101011533E-1,1.548998206E0
9.679153333E-1,-9.724996980E-1,7.850954130E-1,2.689315742E-1,1.278457923E0
9.779493334E-1,-7.345573434E-1,7.911069354E-1,6.294820011E-2,1.081382056E0
9.879833334E-1,-6.512820290E-1,9.285039318E-1,-5.931006253E-2,1.135696049E0
9.980163334E-1,-4.317464170E-1,8.987845811E-1,1.252023357E-1,1.004934981E0
1.008050333E0,-2.122678153E-1,6.898302367E-1,5.547259337E-1,9.102989852E-1
1.018084333E0,-2.778246045E-2,4.184808388E-1,9.786180782E-1,1.064702503E0
1.028118333E0,4.506215215E-2,1.102583143E-1,1.245132998E0,1.250817204E0
1.038152333E0,8.703755915E-2,-1.507087675E-1,1.397762868E0,1.408555894E0
1.048185333E0,4.484770551E-2,-2.661889377E-1,1.330829791E0,1.357930705E0
1.058219333E0,5.465611741E-2,-2.448986408E-1,1.057483569E0,1.086845957E0
1.068253333E0,6.716360405E-2,-1.375873232E-1,7.237321007E-1,7.397495352E-1
1.078287333E0,-6.945922092E-2,-5.067752570E-2,4.884471595E-1,4.959570774E-1
1.088320333E0,-2.593617287E-1,-6.635332614E-2,4.861649913E-1,5.550024044E-1
1.098354333E0,-2.747156399E-1,-2.010787296E-1,7.574752128E-1,8.304637478E-1
1.108388333E0,-1.389370067E-1,-3.801441541E-1,1.289116339E0,1.351160244E0
1.118422333E0,1.054751457E-1,-5.169739705E-1,1.676603719E0,1.757665248E0
1.128456333E0,2.664150788E-1,-5.639510858E-1,1.671555233E0,1.784128560E0
1.138489333E0,2.784056716E-1,-4.791179270E-1,1.186743287E0,1.309741706E0
1.148523333E0,2.635347404E-1,-3.450845414E-1,5.280678928E-1,6.836589790E-1
1.158557333E0,2.847659804E-1,-1.389199036E-1,-1.598330551E-1,3.548760470E-1
1.168591333E0,2.896719405E-1,1.748644924E-1,-7.755711758E-1,8.461666931E-1
1.178624333E0,9.365923852E-2,3.599510872E-1,-1.218682534E0,1.274175795E0
1.188658333E0,2.674794182E-2,4.106236428E-1,-1.301778485E0,1.365267172E0
1.198692333E0,3.233904943E-2,4.587555832E-1,-1.013903686E0,1.113329773E0
1.208726333E0,-2.830797896E-2,3.506949449E-1,-6.690501094E-1,7.559208523E-1
1.218759333E0,1.316161466E-1,2.133584672E-1,-2.480342102E-1,3.526550935E-1
1.228793333E0,3.971197906E-1,1.496249861E-1,2.059898061E-1,4.717240345E-1
1.238827333E0,4.569144411E-1,-4.262035489E-2,4.807680112E-1,6.646240906E-1
1.248861333E0,3.944517061E-1,-2.038725293E-1,4.495924115E-1,6.318935774E-1
1.258895333E0,2.586489531E-1,-2.515752840E-1,2.693601751E-1,4.502713720E-1
1.268928333E0,2.523643658E-2,-2.920865482E-1,-6.138114631E-2,2.995314249E-1
1.278962333E0,-1.899178568E-1,-2.357737684E-1,-4.704032367E-1,5.594079614E-1
1.288996333E0,-3.300912572E-1,-1.354349631E-1,-6.895434308E-1,7.763845763E-1
1.299030333E0,-3.930919361E-1,-1.459055722E-1,-6.989533550E-1,8.150739222E-1
1.309063333E0,-5.373341216E-1,-2.850622880E-1,-5.919861460E-1,8.487850513E-1
1.319097333E0,-5.877941309E-1,-3.461510736E-1,-3.002977931E-1,7.453195762E-1
1.329131333E0,-5.485094664E-1,-4.012096256E-1,1.945006120E-1,7.068679413E-1
1.339165333E0,-4.399887984E-1,-4.638818371E-1,4.955924571E-1,8.089427575E-1
1.349199333E0,-3.601091082E-1,-4.026527184E-1,5.787597442E-1,7.916884633E-1
1.359232333E0,-2.413597597E-1,-3.176458973E-1,4.445029950E-1,5.972741098E-1
1.369266333E0,-1.533153100E-1,-2.448539096E-1,1.987638170E-1,3.506651911E-1
1.379300333E0,-3.058546945E-2,-1.102141678E-1,-1.395028710E-2,1.152269250E-1
1.389334333E0,-1.559715539E-2,-3.559083223E-2,-1.320166808E-1,1.376167963E-1
1.399367333E0,3.653384194E-2,-1.039161319E-1,-1.044517368E-1,1.518006897E-1
1.409401333E0,3.574402928E-2,-2.611810899E-1,1.093838632E-1,2.854085263E-1
1.419435333E0,7.155267030E-2,-3.368142396E-1,3.141708970E-1,4.661190504E-1
1.429469333E0,5.986262441E-2,-4.284471256E-1,2.770387387E-1,5.137128925E-1
1.439503333E0,3.335105628E-3,-4.657552850E-1,-5.178294182E-2,4.686369400E-1
1.449536333E0,-1.645494193E-2,-4.825601828E-1,-3.204987538E-1,5.795295906E-1
1.459570333E0,-8.229195893E-2,-6.302064711E-1,-5.282947648E-1,8.264547908E-1
1.469604333E0,-2.158797866E-1,-7.884631169E-1,-6.326623017E-1,1.033701967E0
1.479638333E0,-3.210090695E-1,-9.250605065E-1,-5.500879222E-1,1.123111965E0
1.489671333E0,-3.540651338E-1,-1.063621391E0,-4.348170823E-1,1.202380338E0
1.499705333E0,-3.533810095E-1,-1.187375371E0,-4.982155180E-1,1.335274171E0
1.509739333E0,-3.217696461E-1,-1.338331769E0,-6.174700660E-1,1.508620864E0
1.519773333E0,-2.449398637E-2,-1.300183949E0,-8.199398482E-1,1.537328726E0
1.529806333E0,5.525136396E-2,-1.175883839E0,-1.190293132E0,1.674082810E0
1.539840333E0,-2.171949716E-1,-1.121774874E0,-1.529415268E0,1.909100203E0
1.549874333E0,-4.574498999E-1,-9.744390732E-1,-1.789545028E0,2.088363792E0
1.559908333E0,-5.353484072E-1,-6.990580201E-1,-1.727263995E0,1.938742103E0
1.569942333E0,-5.132434469E-1,-7.428279376E-1,-1.565615380E0,1.807308413E0
1.579975333E0,-4.187205747E-1,-8.615240765E-1,-1.370056422E0,1.671707287E0
1.590009333E0,-3.170396872E-1,-8.582519746E-1,-1.141908592E0,1.463238138E0
1.600043333E0,-1.552549776E-1,-8.895585519E-1,-9.475594229E-1,1.308926043E0
1.610077333E0,1.992643386E-1,-8.486602020E-1,-6.798692125E-1,1.105510091E0
1.620110333E0,5.291452423E-1,-7.474425602E-1,-4.119784427E-1,1.004186888E0
1.630144333E0,6.899509817E-1,-8.450600713E-1,-3.049568546E-1,1.132765450E0
1.640178333E0,8.212057704E-1,-8.988977247E-1,-3.930416501E-1,1.279405243E0
1.650212333E0,6.673859918E-1,-8.323745370E-1,-5.992688531E-1,1.223672583E0
1.660246333E0,3.848818606E-1,-8.086354262E-1,-7.275193423E-1,1.153823943E0
1.670279333E0,1.002215686E-1,-7.196834886E-1,-7.215774018E-1,1.024042301E0
1.680313333E0,-1.295608503E-1,-6.115237400E-1,-6.125829631E-1,8.752172217E-1
1.690347333E0,-2.685436115E-1,-6.054657322E-1,-5.311061060E-1,8.489865252E-1
1.700381333E0,-3.213863611E-2,-4.846762902E-1,-4.821573097E-1,6.844119150E-1
1.710414333E0,9.712254435E-2,-1.456804544E-2,-4.422290128E-1,4.530027774E-1
1.720448333E0,6.738857567E-2,3.937149569E-1,-2.396177280E-1,4.657996812E-1
1.730482333E0,1.877052703E-1,7.425455171E-1,2.104050386E-1,7.942779071E-1
1.740516333E0,3.286965501E-1,1.039807144E0,8.803579581E-1,1.401524332E0
1.750549333E0,3.845357054E-1,1.138311677E0,1.532946986E0,1.947703172E0
1.760583333E0,2.792568800E-1,1.072070033E0,1.953788053E0,2.246020106E0
1.770617333E0,2.377434030E-1,1.081998897E0,2.248108823E0,2.506239577E0
1.780651333E0,3.351480755E-1,1.182062007E0,2.280184894E0,2.590142461E0
1.790685333E0,4.651848891E-1,1.341070897E0,1.994885209E0,2.448353554E0
1.800718333E0,4.654576617E-1,1.478226111E0,1.566525207E0,2.203589002E0
1.810752333E0,3.554525319E-1,1.485965778E0,1.117198843E0,1.892768885E0
1.820786333E0,2.424211755E-1,1.409570736E0,7.019453752E-1,1.593230992E0
1.830820333E0,2.135680899E-1,1.230620794E0,4.568657631E-1,1.329949319E0
1.840853333E0,2.530967295E-2,8.818466592E-1,2.268678743E-1,9.109133561E-1
1.850887333E0,-2.316929966E-1,4.781876349E-1,3.305606425E-2,5.323887323E-1
1.860921333E0,-4.895022896E-1,1.401317391E-1,-1.205391812E-1,5.232390372E-1
1.870955333E0,-7.086050615E-1,-1.686453938E-1,-4.156481552E-1,8.386452116E-1
1.880989333E0,-7.153276053E-1,-2.742949328E-1,-7.805740535E-1,1.093721695E0
1.891022333E0,-3.843100029E-1,-2.986348450E-2,-1.121901759E0,1.186275500E0
1.901056333E0,5.442734510E-2,4.312458953E-1,-1.327600958E0,1.396946550E0
1.911090333E0,3.131303850E-1,7.281464562E-1,-1.252019264E0,1.481823248E0
1.921124333E0,4.994179979E-1,7.928836119E-1,-8.929680634E-1,1.294401298E0
1.931157250E0,6.296524474E-1,7.764336401E-1,-2.227093345E-1,1.024163488E0
1.941191250E0,5.856696913E-1,6.272667834E-1,6.449069560E-1,1.073488513E0
1.951225250E0,4.162749767E-1,3.470176309E-1,1.358178388E0,1.462311398E0
1.961259250E0,1.556487876E-1,1.749065924E-1,1.653518327E0,1.670012491E0
1.971293250E0,-1.170779219E-1,1.052671310E-1,1.490644135E0,1.498935738E0
1.981326250E0,-2.838703331E-1,1.396929055E-1,1.078400813E0,1.123852654E0
1.991360250E0,-4.156943482E-1,2.886331826E-1,6.392187846E-1,8.152984483E-1
2.001394250E0,-3.973896396E-1,4.804174706E-1,3.091417068E-1,6.959080878E-1
2.011428250E0,-2.133035034E-1,6.372365785E-1,2.110552490E-2,6.723200761E-1
2.021461250E0,-1.570065111E-1,7.471595550E-1,-2.320268726E-1,7.979567123E-1
2.031495250E0,-7.675727695E-2,6.659849989E-1,-6.475849807E-2,6.735141880E-1
2.041529250E0,9.944944382E-2,5.080195445E-1,3.504791826E-1,6.251477480E-1
2.051563250E0,1.211762354E-1,3.840910247E-1,8.338889658E-1,9.260563712E-1
2.061597250E0,1.762403423E-1,2.277777010E-1,1.235210858E0,1.268341122E0
2.071630250E0,4.337224835E-1,1.351785627E-1,1.407563387E0,1.479061569E0
2.081664250E0,6.140664017E-1,1.262387547E-1,1.250811229E0,1.399122046E0
2.091698250E0,5.637467256E-1,2.087444293E-1,8.134494388E-1,1.011476444E0
2.101732250E0,4.992922828E-1,2.894623178E-1,3.617438436E-1,6.811312835E-1
2.111765250E0,5.414992395E-1,3.139747229E-1,4.048027396E-3,6.259536241E-1
2.121799250E0,5.419816348E-1,2.729676148E-1,-2.090490693E-1,6.418387060E-1
2.131833250E0,5.312286052E-1,1.942164373E-1,-2.795378387E-1,6.309241308E-1
2.141867250E0,6.614060444E-1,1.133772191E-1,-2.505075824E-1,7.162865336E-1
2.151900250E0,8.614454314E-1,6.334668785E-2,-2.229052162E-1,8.920693749E-1
2.161934250E0,1.019038418E0,1.183777580E-1,-2.166253066E-1,1.048512811E0
2.171968250E0,1.106449907E0,2.259782204E-1,-3.339520276E-1,1.177633860E0
2.182002250E0,1.080137144E0,2.034702408E-1,-3.857028097E-1,1.164844645E0
2.192036250E0,1.099090309E0,1.477085611E-1,-3.653164923E-1,1.167593022E0
2.202069250E0,1.022885594E0,1.834277397E-1,-3.636874580E-1,1.101003742E0
2.212103250E0,8.884092817E-1,1.433468306E-1,-3.798316205E-1,9.767760365E-1
2.222137250E0,7.980738929E-1,6.229769737E-2,-2.709278136E-1,8.451063967E-1
2.232171250E0,7.634542832E-1,-2.399989665E-2,-1.108871824E-1,7.718383281E-1
2.242204250E0,7.657268035E-1,-1.354168367E-1,-6.505027413E-3,7.776358870E-1
2.252238250E0,7.053405610E-1,-1.922473875E-1,-4.152809501E-2,7.322492387E-1
2.262272250E0,6.197767925E-1,-2.835747564E-1,-1.693844819E-1,7.023026539E-1
2.272306250E0,5.401684132E-1,-3.815606421E-1,-2.936565256E-1,7.236052745E-1
2.282340250E0,6.351157933E-1,-4.122871757E-1,-3.644195294E-1,8.403299231E-1
2.292373250E0,7.833745775E-1,-3.306232077E-1,-4.504788494E-1,9.622466564E-1
2.302407250E0,8.092704338E-1,-2.607086349E-1,-5.783481002E-1,1.028286999E0
2.312441250E0,7.566098249E-1,-2.248745584E-1,-7.229994446E-1,1.070399547E0
2.322475250E0,7.001973501E-1,-2.015353972E-1,-8.351899713E-1,1.108347930E0
2.332508250E0,5.627404198E-1,-2.018733662E-1,-8.232803625E-1,1.017457710E0
2.342542250E0,4.496593621E-1,-2.983015537E-1,-6.026736867E-1,8.089455678E-1
2.352576250E0,4.173438478E-1,-4.959842205E-1,-2.741186392E-1,7.037877966E-1
2.362610250E0,4.239985639E-1,-6.216870779E-1,-8.230891585E-2,7.569969370E-1
2.372643250E0,3.956096010E-1,-6.555564898E-1,-8.186686635E-2,7.700412012E-1
2.382677250E0,3.863416180E-1,-5.966276658E-1,-1.125711805E-1,7.196503929E-1
2.392711250E0,3.263825145E-1,-5.682873809E-1,-1.526023883E-1,6.728770928E-1
2.402745250E0,2.937340012E-1,-5.854436964E-1,-2.034901214E-1,6.858806125E-1
2.412779250E0,2.621689770E-1,-5.753525716E-1,-2.318233895E-1,6.734279754E-1
2.422812250E0,2.063334762E-1,-5.956067419E-1,-2.945242524E-1,6.957481079E-1
2.432846250E0,1.819956104E-1,-6.368161637E-1,-3.621806306E-1,7.548721996E-1
2.442880250E0,1.579391420E-1,-6.808725947E-1,-3.915383309E-1,8.011457591E-1
2.452914250E0,1.263330410E-1,-7.119569778E-1,-3.560194194E-1,8.059730781E-1
2.462947250E0,1.271057506E-1,-7.358972329E-1,-2.703834379E-1,7.942341045E-1
2.472981250E0,1.397415836E-1,-6.892194951E-1,-2.794448680E-1,7.567302404E-1
2.483015250E0,1.482209234E-1,-5.074517798E-1,-3.398167849E-1,6.284522243E-1
2.493049250E0,1.999380840E-1,-3.095054036E-1,-3.172395158E-1,4.862198502E-1
2.503083250E0,2.561597934E-1,-1.929318041E-1,-2.154453385E-1,3.863382128E-1
2.513116250E0,2.986671509E-1,-1.983738077E-1,-4.164854765E-2,3.609554489E-1
2.523150250E0,2.879838493E-1,-2.284051073E-1,9.559729815E-2,3.797926196E-1
2.533184250E0,2.751806398E-1,-2.413525969E-1,1.333182710E-1,3.895500249E-1
2.543218250E0,2.192333110E-1,-2.222193378E-1,8.472147703E-2,3.234538722E-1
2.553251250E0,1.473993896E-1,-1.845328635E-1,1.268787324E-2,2.365162571E-1
2.563285250E0,1.522544789E-1,-1.310881430E-1,-2.417367589E-1,3.143281537E-1
2.573319250E0,1.523307851E-1,-2.205979049E-2,-5.323147255E-1,5.541211686E-1
2.583353250E0,6.142090738E-2,1.207800865E-2,-7.160102677E-1,7.187413371E-1
2.593386250E0,3.852686539E-2,-3.028272986E-2,-8.420674664E-1,8.434921345E-1
2.603420250E0,6.070871651E-2,-1.853216529E-2,-8.369400430E-1,8.393435679E-1
2.613454250E0,4.728774861E-2,6.433340549E-2,-6.231939054E-1,6.282878018E-1
2.623488250E0,3.986017674E-2,3.020437717E-2,-3.536717623E-1,3.571902204E-1
2.633522250E0,5.209898382E-2,-8.359413385E-2,-7.683650672E-2,1.249245056E-1
2.643555250E0,-3.377351761E-3,-2.442569089E-1,1.598114204E-1,2.919118602E-1
2.653589250E0,-1.424573229E-1,-4.330635023E-1,3.138984168E-1,5.535072736E-1
2.663623250E0,-3.863772860E-1,-5.382262605E-1,2.766282642E-1,7.179819714E-1
2.673657250E0,-5.918788496E-1,-4.962876910E-1,1.163701165E-1,7.811299820E-1
2.683690250E0,-7.285243325E-1,-3.206724161E-1,-1.229143202E-1,8.054107223E-1
2.693724250E0,-8.237113023E-1,-1.287644595E-1,-3.808741790E-1,9.165946409E-1
2.703758250E0,-8.315946646E-1,8.857449979E-2,-5.914224744E-1,1.024292766E0
2.713792250E0,-8.223190802E-1,2.880364743E-1,-7.621167326E-1,1.157581787E0
2.723826250E0,-8.571149835E-1,3.598747811E-1,-8.626543432E-1,1.268198907E0
2.733859250E0,-8.427065670E-1,4.034511557E-1,-7.354031432E-1,1.189010082E0
2.743893250E0,-6.960833953E-1,4.615368113E-1,-4.995901984E-1,9.732105054E-1
2.753927250E0,-5.326437776E-1,4.751783654E-1,-2.609945637E-1,7.600144966E-1
2.763961250E0,-4.431367931E-1,4.499350584E-1,-3.234445810E-2,6.323432123E-1
2.773994250E0,-3.460051855E-1,4.532118380E-1,5.758221030E-2,5.730935957E-1
2.784028250E0,-2.865559593E-1,4.112057331E-1,6.366799235E-2,5.052307255E-1
2.794062250E0,-2.767576338E-1,3.815372533E-1,5.335233450E-2,4.743542296E-1
2.804096250E0,-2.370215642E-1,3.546353835E-1,9.597619772E-2,4.372149445E-1
2.814130250E0,-2.593254760E-1,3.631673482E-1,1.267039007E-1,4.638901850E-1
2.824163250E0,-3.356331021E-1,3.710298067E-1,1.236463916E-1,5.153650423E-1
2.834197250E0,-3.920514241E-1,3.300124660E-1,1.972312617E-1,5.491017369E-1
2.844231250E0,-4.046124128E-1,3.363704360E-1,3.143813968E-1,6.129371398E-1
2.854265250E0,-4.514429091E-1,3.056710920E-1,3.902010727E-1,6.704419391E-1
2.864298250E0,-4.572038783E-1,2.561171088E-1,5.359552020E-1,7.495861113E-1
2.874332250E0,-3.354424828E-1,2.512788302E-1,6.919314337E-1,8.089696031E-1
2.884366250E0,-2.472030285E-1,2.106175849E-1,6.997357124E-1,7.714267117E-1
2.894400250E0,-2.132182802E-1,1.499863440E-1,5.725347984E-1,6.290898455E-1
2.904433250E0,-1.946495698E-1,1.509371012E-1,5.448517406E-1,5.979413707E-1
2.914467250E0,-2.316254613E-1,9.143525004E-2,4.649892998E-1,5.274711444E-1
2.924501250E0,-3.187834731E-1,8.004195035E-2,2.858083928E-1,4.355640641E-1
2.934535083E0,-4.852187656E-1,1.240691453E-1,-1.040219665E-3,5.008307951E-1
2.944569083E0,-6.302313218E-1,1.967608532E-1,-3.027290654E-1,7.263272261E-1
2.954602083E0,-7.164480780E-1,2.579236060E-1,-5.161103368E-1,9.198871207E-1
2.964636083E0,-8.169633231E-1,3.322528267E-1,-5.778165883E-1,1.054368542E0
2.974670083E0,-1.026121151E0,3.331337097E-1,-4.581118047E-1,1.172078969E0
2.984704083E0,-9.447305399E-1,3.537670720E-1,-3.341923481E-1,1.062709490E0
2.994737083E0,-6.917691734E-1,3.326021978E-1,-3.544640601E-1,8.454664873E-1
3.004771083E0,-5.865818569E-1,4.386639655E-1,-2.600783050E-1,7.772676979E-1
3.014805083E0,-3.908792035E-1,5.266312319E-1,-1.520942652E-1,6.732456251E-1
3.024839083E0,-2.010997796E-1,5.547651100E-1,-2.510735929E-2,5.906232540E-1
3.034873083E0,-1.803842640E-1,5.105405715E-1,1.825091422E-2,5.417778638E-1
3.044906083E0,-3.276308951E-1,5.746643543E-1,-5.078657627E-2,6.634458530E-1
3.054940083E0,-2.786435071E-1,6.760144356E-1,-2.236782181E-1,7.646369507E-1
3.064974083E0,-3.085141544E-1,8.558280113E-1,-2.250721943E-1,9.371659731E-1
3.075008083E0,-3.020544429E-1,1.005994157E0,-1.242439771E-1,1.057685065E0
3.085041083E0,-3.398913369E-2,1.012390719E0,1.158046907E-1,1.019559196E0
3.095075083E0,2.125265546E-1,9.102483398E-1,4.458683199E-1,1.035624515E0
3.105109083E0,3.228864643E-1,7.725046036E-1,6.047319067E-1,1.032821238E0
3.115143083E0,2.285948494E-1,7.008063376E-1,4.688981634E-1,8.736421554E-1
3.125176083E0,6.814023525E-2,6.855883741E-1,1.327844203E-1,7.016453610E-1
3.135210083E0,2.056319565E-2,5.700666887E-1,-2.060114408E-1,6.064978056E-1
3.145244083E0,-2.243912861E-2,4.383762825E-1,-4.452069998E-1,6.252092067E-1
3.155278083E0,-1.298287989E-1,3.227341443E-1,-6.636314946E-1,7.492793909E-1
3.165312083E0,-2.772607867E-1,2.195021367E-1,-7.619828314E-1,8.400431936E-1
3.175345083E0,-4.930417554E-1,1.351934731E-1,-7.191560698E-1,8.823564475E-1
3.185379083E0,-6.341184045E-1,8.896217018E-2,-4.648320097E-1,7.912579958E-1
3.195413083E0,-5.832337412E-1,-3.329404593E-3,2.139320791E-2,5.836354609E-1
3.205447083E0,-3.403488815E-1,-1.529090747E-1,5.831387240E-1,6.922927976E-1
3.215480083E0,-1.408721428E-1,-2.694902757E-1,9.976624596E-1,1.042976679E0
3.225514083E0,-3.770138472E-3,-2.862633061E-1,1.183384062E0,1.217521553E0
3.235548083E0,4.132022649E-2,-3.177289277E-1,1.074800098E0,1.121541031E0
3.245582083E0,-5.131735727E-2,-3.039134189E-1,7.798221016E-1,8.385221211E-1
3.255616083E0,-1.086593932E-1,-2.751904339E-1,5.238222295E-1,6.016031638E-1
3.265649083E0,-3.242339551E-2,-2.579180512E-1,3.305594730E-1,4.205265306E-1
3.275683083E0,-2.248122856E-2,-1.856172296E-1,1.460388887E-1,2.372478000E-1
3.285717083E0,-2.299198285E-2,-1.377764806E-1,1.913852155E-2,1.409867827E-1
3.295751083E0,4.280439600E-2,-1.162464479E-1,-5.181451678E-2,1.342765695E-1
3.305784083E0,1.121362938E-1,-1.165733072E-1,-1.399957913E-1,2.139221960E-1
3.315818083E0,1.279971586E-1,-4.098138034E-2,-2.163855708E-1,2.547262479E-1
3.325852083E0,1.625452861E-1,4.121906966E-2,-3.166319901E-1,3.582956864E-1
3.335886083E0,2.358527058E-1,1.051864395E-1,-4.023100716E-1,4.780628406E-1
3.345919083E0,3.275379243E-1,1.514335299E-1,-4.345557117E-1,5.648467690E-1
3.355953083E0,4.377110155E-1,1.800699762E-1,-4.386785835E-1,6.453332697E-1
3.365987083E0,4.974737987E-1,2.129301587E-1,-4.709914666E-1,7.173927756E-1
3.376021083E0,4.882037692E-1,2.214989609E-1,-4.882840222E-1,7.251386049E-1
3.386055083E0,4.719498253E-1,2.302089733E-1,-4.747915721E-1,7.079264410E-1
3.396088083E0,4.035227841E-1,2.512186038E-1,-3.896625441E-1,6.146367403E-1
3.406122083E0,3.357113086E-1,2.240767059E-1,-1.202152455E-1,4.211462431E-1
3.416156083E0,2.659180655E-1,1.308583474E-1,2.385587972E-1,3.804558113E-1
3.426190083E0,1.893652949E-1,-4.303199887E-2,5.517286509E-1,5.849063789E-1
3.436223083E0,7.545656383E-2,-2.082924396E-1,7.855722535E-1,8.162127167E-1
3.446257083E0,3.302156568E-2,-3.191468775E-1,7.942501062E-1,8.566086530E-1
3.456291083E0,1.323911950E-2,-3.517111909E-1,5.508509839E-1,6.536917030E-1
3.466325083E0,-3.346390754E-2,-2.662599814E-1,1.000335807E-1,2.863929609E-1
3.476359083E0,-4.711247832E-2,-1.730968791E-1,-3.535554028E-1,3.964637915E-1
3.486392083E0,-7.877251983E-2,-1.327516758E-1,-6.085858065E-1,6.278573096E-1
3.496426083E0,-2.386029437E-2,-1.804246098E-1,-6.177969253E-1,6.440461120E-1
3.506460083E0,7.357829198E-2,-2.129526705E-1,-4.658196044E-1,5.174461409E-1
3.516494083E0,1.792719774E-1,-2.617833531E-1,-2.845915872E-1,4.262174766E-1
3.526527083E0,2.398255965E-1,-3.282381284E-1,-2.094928730E-1,4.573224787E-1
3.536561083E0,2.892708215E-1,-3.109549284E-1,-3.099386823E-1,5.257685446E-1
3.546595083E0,2.319954439E-1,-2.838057214E-1,-4.294294578E-1,5.646036067E-1
3.556629083E0,1.513711108E-1,-2.552841729E-1,-5.183498204E-1,5.973020663E-1
3.566662083E0,1.647926635E-1,-2.275198388E-1,-5.285403478E-1,5.985622760E-1
3.576696083E0,1.646665098E-1,-1.944392163E-1,-5.020243943E-1,5.629832686E-1
3.586730083E0,5.751628295E-2,-1.682980692E-1,-5.072067815E-1,5.374858902E-1
3.596764083E0,-1.043230981E-1,-2.089028889E-1,-4.786612594E-1,5.325789397E-1
3.606798083E0,-2.333172069E-1,-2.843138444E-1,-4.179344165E-1,5.567229632E-1
3.616831083E0,-3.352961563E-1,-3.279217941E-1,-3.052112085E-1,5.595624158E-1
3.626865083E0,-3.182290109E-1,-2.876327240E-1,-1.342789686E-1,4.494809548E-1
3.636899083E0,-2.262024611E-1,-2.501234204E-1,2.479453325E-2,3.381479672E-1
3.646933083E0,-1.448859639E-1,-2.358164531E-1,1.329925811E-1,3.070641118E-1
3.656966083E0,-1.016542827E-1,-1.977545875E-1,1.552312964E-1,2.711774796E-1
3.667000083E0,5.116313696E-5,-1.331124490E-1,1.446162611E-1,1.965522569E-1
3.677034083E0,9.981986493E-2,-2.993715942E-2,5.101403296E-2,1.160287486E-1
3.687068083E0,1.847664598E-1,7.717213690E-2,3.606562614E-3,2.002677974E-1
3.697102083E0,3.467685395E-1,1.219957227E-1,-9.948452711E-3,3.677367918E-1
3.707135083E0,4.841789845E-1,1.056942701E-1,-5.129528403E-2,4.982286362E-1
3.717169083E0,4.818355666E-1,9.937167585E-2,-1.579069823E-1,5.166960986E-1
3.727203083E0,3.243712185E-1,7.552614570E-2,-3.248859197E-1,4.652652436E-1
3.737237083E0,1.078333278E-1,4.933412790E-2,-4.580878311E-1,4.731874299E-1
3.747270083E0,-8.673862025E-2,5.107542872E-2,-4.506121659E-1,4.617181085E-1
3.757304083E0,-2.220445061E-1,1.763461769E-2,-3.309874892E-1,3.989579683E-1
3.767338083E0,-3.065690781E-1,-1.979925692E-2,-1.107883644E-1,3.265741446E-1
3.777372083E0,-2.917830777E-1,-5.621513128E-2,1.507482362E-1,3.332004444E-1
3.787405083E0,-1.845987909E-1,-7.691602886E-2,3.137405419E-1,3.720563354E-1
3.797439083E0,-1.089684185E-1,-1.656048417E-2,3.682102793E-1,3.843529312E-1
3.807473083E0,-1.162721756E-1,4.675901413E-2,2.268023854E-1,2.591234190E-1
3.817507083E0,-1.674832597E-1,3.474240124E-2,-4.646197557E-3,1.711118461E-1
3.827541083E0,-2.280256230E-1,9.575224936E-2,-1.492741531E-1,2.888718587E-1
3.837574083E0,-3.069430076E-1,1.193364090E-1,-2.343926561E-1,4.042216046E-1
3.847608083E0,-3.348966452E-1,1.394812363E-1,-1.997958505E-1,4.141607902E-1
3.857642083E0,-3.416620199E-1,1.543483669E-1,-1.478907019E-1,4.030235898E-1
3.867676083E0,-3.070609751E-1,1.668842125E-1,-1.710895300E-2,3.498992699E-1
3.877709083E0,-2.536582084E-1,1.795346636E-1,1.918307734E-1,3.652043643E-1
3.887743083E0,-1.629984453E-1,1.958121425E-1,3.628273326E-1,4.433447435E-1
3.897777083E0,-1.018763307E-1,1.613404673E-1,4.438019139E-1,4.830835041E-1
3.907811083E0,-2.964392155E-2,1.417616504E-1,4.488176554E-1,4.716062080E-1
3.917845083E0,-2.614553243E-2,1.352384967E-1,3.603375882E-1,3.857670506E-1
3.927878083E0,-6.980844587E-2,1.044283479E-1,1.368809795E-1,1.857818654E-1
3.937911708E0,-1.584121817E-1,6.466026485E-2,-1.622789454E-1,2.358173558E-1
3.947945708E0,-2.764396915E-1,4.228238583E-2,-3.731827515E-1,4.663390068E-1
3.957979708E0,-2.778928708E-1,-4.414647818E-4,-4.287657988E-1,5.109449606E-1
3.968012708E0,-2.503555548E-1,-5.611806750E-2,-4.006067777E-1,4.757235874E-1
3.978046708E0,-1.870645617E-1,-7.741888940E-2,-3.236837322E-1,3.817826517E-1
3.988080708E0,-1.319261952E-1,-9.284267485E-2,-3.287263709E-1,3.661766107E-1
3.998114708E0,2.749404654E-2,-3.432607949E-2,-3.942531931E-1,3.966986043E-1
4.008148708E0,5.805261880E-2,-5.387039781E-3,-5.391097748E-1,5.422531476E-1
4.018181708E0,5.171335995E-2,2.332454324E-3,-6.597752559E-1,6.618029165E-1
4.028215708E0,4.052792877E-2,3.695498765E-2,-7.003444076E-1,7.024887710E-1
4.038249708E0,-6.236026257E-2,8.863209486E-3,-6.208620358E-1,6.240488973E-1
4.048283708E0,-2.479046944E-1,-3.899391174E-2,-5.107542872E-1,5.690757459E-1
4.058316708E0,-4.278616731E-1,-8.273839384E-2,-4.372963017E-1,6.173648100E-1
4.068350708E0,-5.610660696E-1,-8.908116102E-2,-3.717764962E-1,6.789317718E-1
4.078384708E0,-6.179697105E-1,-9.321952790E-2,-3.064274293E-1,6.960418184E-1
4.088418708E0,-5.869499391E-1,-9.562010229E-2,-2.470413530E-1,6.439587449E-1
4.098451708E0,-5.391460276E-1,-8.057141572E-2,-2.028866887E-1,5.816641647E-1
4.108485708E0,-4.003133936E-1,-6.751429081E-2,-1.397893846E-1,4.293600641E-1
4.118519708E0,-1.756733085E-1,5.583652407E-2,-1.666456461E-3,1.843410042E-1
4.128553708E0,-5.332192898E-2,1.925602135E-1,8.281411529E-2,2.162887922E-1
4.138587708E0,3.422711536E-2,2.685076511E-1,7.994430184E-2,2.822391637E-1
4.148620708E0,9.564743802E-2,3.888649839E-1,-4.358397603E-2,4.028200232E-1
4.158654708E0,-5.551463485E-2,4.223970115E-1,-1.946444535E-1,4.683882720E-1
4.168688708E0,-2.672620480E-1,4.024542055E-1,-2.703723282E-1,5.536240472E-1
4.178722708E0,-4.638954319E-1,3.518141019E-1,-2.638573605E-1,6.392126725E-1
4.188755708E0,-6.464360029E-1,2.719706646E-1,-1.434164125E-1,7.158322538E-1
4.198789708E0,-7.597366235E-1,1.859318098E-1,-1.135353863E-2,7.822399106E-1
4.208823708E0,-8.848376562E-1,1.175617790E-1,1.121343935E-1,8.996291302E-1
4.218857708E0,-1.039546504E0,2.501818925E-2,1.199953902E-1,1.046748173E0
4.228890708E0,-1.140112181E0,-6.807240754E-2,7.125943244E-2,1.144363380E0
4.238924708E0,-1.188947980E0,-1.377221015E-1,-1.186926305E-2,1.196956790E0
4.248958708E0,-1.171910363E0,-1.107763776E-1,-1.007025021E-1,1.181434001E0
4.258992708E0,-1.116661923E0,-1.270746142E-2,-2.080661523E-1,1.135951959E0
4.269026708E0,-9.832863490E-1,1.158783656E-1,-3.280580342E-1,1.043025366E0
4.279059708E0,-8.041981204E-1,2.309904537E-1,-4.622083640E-1,9.558910912E-1
4.289093708E0,-7.333251889E-1,3.091978401E-1,-6.166175419E-1,1.006770247E0
4.299127708E0,-7.191861829E-1,3.936909834E-1,-7.282397193E-1,1.096610434E0
4.309161708E0,-7.346563075E-1,4.806276780E-1,-7.349236715E-1,1.144917315E0
4.319194708E0,-8.449092132E-1,5.003570607E-1,-5.965206617E-1,1.148941107E0
4.329228708E0,-9.916360268E-1,4.628521425E-1,-2.289670247E-1,1.118033995E0
4.339262708E0,-1.084381053E0,3.988260081E-1,3.567626005E-1,1.209224548E0
4.349296708E0,-8.930557716E-1,3.137943363E-1,9.476219881E-1,1.339403945E0
4.359330708E0,-7.797229913E-1,2.761870918E-1,1.308743688E0,1.548243293E0
4.369363708E0,-7.986698703E-1,3.494565046E-1,1.389779665E0,1.640573353E0
4.379397708E0,-8.557856190E-1,4.164480543E-1,1.286487431E0,1.600264952E0
4.389431708E0,-9.281797037E-1,4.353281289E-1,1.075488315E0,1.485834196E0
4.399465708E0,-9.505226456E-1,4.960815766E-1,7.829538703E-1,1.327632100E0
4.409498708E0,-9.775266954E-1,5.558728650E-1,4.579656243E-1,1.214201629E0
4.419532708E0,-1.005928668E0,5.735124528E-1,2.239425123E-1,1.179389362E0
4.429566708E0,-1.012029507E0,5.556258202E-1,4.732385516E-2,1.155492675E0
4.439600708E0,-1.065732821E0,5.573773536E-1,-1.047528684E-2,1.202732593E0
4.449634708E0,-1.183846431E0,5.270709425E-1,-1.872629285E-2,1.296011892E0
4.459667708E0,-1.338968238E0,5.176484469E-1,9.757833481E-2,1.438859753E0
4.469701708E0,-1.504352055E0,5.197742021E-1,3.035850978E-1,1.620309920E0
4.479735708E0,-1.616758344E0,5.731820852E-1,6.234371495E-1,1.825135372E0
4.489769708E0,-1.843193232E0,6.226015824E-1,9.599058187E-1,2.169426929E0
4.499802708E0,-2.220532769E0,5.556711361E-1,1.253508550E0,2.609754754E0
4.509836708E0,-2.524521909E0,3.755350864E-1,1.548962510E0,2.985552265E0
4.519870708E0,-2.954003992E0,1.636185426E-1,1.712540122E0,3.418435941E0
4.529904708E0,-3.421514027E0,-5.664636344E-2,1.721254227E0,3.830493853E0
4.539937708E0,-3.726071516E0,-1.718239403E-1,1.555272240E0,4.041287437E0
4.549971708E0,-3.614603705E0,5.800437927E-3,1.393394998E0,3.873879608E0
4.560005708E0,-3.246361851E0,4.044785115E-1,1.063557072E0,3.440003166E0
4.570039708E0,-2.979337639E0,7.294664651E-1,7.631645536E-1,3.160853401E0
4.580073708E0,-2.836923731E0,1.000620566E0,5.101906157E-1,3.051175550E0
4.590106708E0,-2.796977016E0,1.140735933E0,3.756187016E-1,3.043919891E0
4.600140708E0,-2.839725717E0,1.166694062E0,4.144038677E-1,3.097894083E0
4.610174708E0,-2.798966823E0,1.014777845E0,5.196362078E-1,3.022252660E0
4.620208708E0,-2.735395310E0,7.950292477E-1,4.931705403E-1,2.890964577E0
4.630241708E0,-2.554657289E0,6.587288967E-1,3.592693019E-1,2.662568695E0
4.640275708E0,-2.100385644E0,5.937177989E-1,2.695794457E-1,2.199271187E0
4.650309708E0,-1.654305801E0,6.460278672E-1,6.805457354E-2,1.777276318E0
4.660343708E0,-1.491930815E0,6.431919676E-1,-4.081426692E-1,1.675151904E0
4.670377708E0,-1.322565775E0,5.802940536E-1,-8.718625385E-1,1.687028661E0
4.680410708E0,-1.042843018E0,5.020515838E-1,-1.006701086E0,1.533957114E0
4.690444708E0,-8.483386052E-1,4.528083801E-1,-9.211890650E-1,1.331654276E0
4.700478708E0,-1.001337288E0,5.787278768E-1,-8.388807338E-1,1.428748825E0
4.710512708E0,-1.038046547E0,5.618674305E-1,-9.243711197E-1,1.499232340E0
4.720545708E0,-9.424808237E-1,2.889892781E-1,-1.025795168E0,1.422687820E0
4.730579708E0,-8.067318651E-1,4.105622470E-3,-1.124954590E0,1.384325102E0
4.740613708E0,-5.132890552E-1,-1.082503805E-1,-1.086115045E0,1.206163210E0
4.750647708E0,-4.603395939E-2,-1.137195736E-1,-9.140332425E-1,9.222299253E-1
4.760681708E0,5.026367439E-1,5.824499220E-2,-7.517876261E-1,9.062123428E-1
4.770714708E0,8.877179946E-1,3.399851847E-1,-4.660160708E-1,1.058680378E0
4.780748708E0,9.086048336E-1,3.761414427E-1,-1.314442384E-1,9.921303928E-1
4.790782708E0,7.916735306E-1,2.232285672E-1,9.608261704E-2,8.281363666E-1
4.800816708E0,6.778278033E-1,4.431253910E-2,1.302537453E-1,6.916503237E-1
4.810849708E0,7.317231980E-1,-1.441210020E-1,3.377468705E-2,7.465456658E-1
4.820883708E0,8.032711905E-1,-3.540261036E-1,-1.531467640E-1,8.910853039E-1
4.830917708E0,9.596906412E-1,-3.936070758E-1,-2.138554806E-1,1.059087732E0
4.840951708E0,1.189188008E0,-1.737681395E-1,-2.407058948E-1,1.225684630E0
4.850985708E0,1.480122216E0,2.256463909E-1,-3.164594972E-1,1.530302154E0
4.861018708E0,1.645974980E0,7.082217765E-1,-3.380392313E-1,1.823480804E0
4.871052708E0,1.682537912E0,1.101375693E0,-1.747873092E-1,2.018542258E0
4.881086708E0,1.620007495E0,1.228491238E0,2.955814290E-1,2.054503197E0
4.891120708E0,1.499540527E0,9.861422753E-1,8.699154156E-1,1.994455116E0
4.901153708E0,1.256103106E0,5.792348304E-1,1.751719390E0,2.232001080E0
4.911187708E0,9.157897460E-1,8.811227739E-2,2.664617688E0,2.818975356E0
4.921221708E0,5.544385430E-1,-3.802201679E-1,2.982046069E0,3.056888652E0
4.931255708E0,2.233203685E-1,-5.797856382E-1,2.535668457E0,2.610677670E0
4.941290208E0,-3.189524576E-2,-4.740410820E-1,1.506954943E0,1.580077673E0
4.951323208E0,-2.730044523E-1,-3.607799301E-1,4.196429729E-1,6.170849323E-1
4.961357208E0,-4.599375978E-1,-3.005404526E-1,-2.625604481E-1,6.089377196E-1
4.971391208E0,-5.620945948E-1,-2.692967328E-1,-5.144725317E-1,8.081788476E-1
4.981425208E0,-6.061273447E-1,-2.664552784E-1,-8.054837769E-1,1.042685422E0
4.991458208E0,-5.944171259E-1,-2.136028808E-1,-1.033366728E0,1.211117131E0
5.001492208E0,-6.347387941E-1,-1.548912808E-1,-1.256628624E0,1.416333345E0
5.011526208E0,-7.041376425E-1,-1.339588335E-1,-1.545208597E0,1.703356803E0
5.021560208E0,-5.990703401E-1,-4.581439644E-2,-1.757956615E0,1.857793232E0
5.031594208E0,-4.560217175E-1,1.024949661E-1,-1.824825373E0,1.883732642E0
5.041627208E0,-3.739135073E-1,2.347335488E-1,-1.741637036E0,1.796722214E0
5.051661208E0,-3.980240625E-1,2.902674794E-1,-1.576789409E0,1.651951332E0
5.061695208E0,-4.983467880E-1,2.704500961E-1,-1.271251926E0,1.391967756E0
5.071729208E0,-6.116491628E-1,3.147854394E-1,-8.038968426E-1,1.058042865E0
5.081762208E0,-6.447502506E-1,3.926457936E-1,-2.598093331E-1,7.983573726E-1
5.091796208E0,-5.979348108E-1,4.339359069E-1,3.924458188E-1,8.365644805E-1
5.101830208E0,-5.913927998E-1,3.065569451E-1,1.009323562E0,1.209320742E0
5.111864208E0,-5.172800723E-1,4.239903778E-2,1.583797882E0,1.666670958E0
5.121898208E0,-4.488401672E-1,-2.896032357E-1,1.860709736E0,1.935863696E0
5.131931208E0,-4.325980639E-1,-5.786641422E-1,1.721848889E0,1.867285964E0
5.141965208E0,-3.848890235E-1,-7.504208395E-1,1.386264904E0,1.622652575E0
5.151999208E0,-3.955154608E-1,-8.178173089E-1,8.527368808E-1,1.245960601E0
5.162033208E0,-4.469401145E-1,-7.699803606E-1,1.817373097E-1,9.086548692E-1
5.172066208E0,-6.022247668E-1,-6.473516768E-1,-3.758490819E-1,9.607296162E-1
5.182100208E0,-7.368523756E-1,-5.987236002E-1,-8.359664816E-1,1.265014360E0
5.192134208E0,-7.398522896E-1,-6.688132972E-1,-1.164795179E0,1.533440721E0
5.202168208E0,-5.993646012E-1,-7.791365156E-1,-1.252433247E0,1.592130859E0
5.212202208E0,-3.627714917E-1,-7.926248726E-1,-8.842387551E-1,1.241666429E0
5.222235208E0,-7.754767433E-2,-8.568299317E-1,-4.462618375E-1,9.691856382E-1
5.232269208E0,3.242745933E-1,-9.664029524E-1,-2.001566237E-1,1.038822098E0
5.242303208E0,6.881231421E-1,-1.037441068E0,-1.129699606E-1,1.250023856E0
5.252337208E0,8.495302677E-1,-1.035083763E0,-2.088701445E-1,1.355258945E0
5.262370208E0,9.242704014E-1,-9.114762551E-1,-5.486623710E-1,1.409288876E0
5.272404208E0,9.629010549E-1,-6.341150424E-1,-9.662161338E-1,1.504278547E0
5.282438208E0,9.567443754E-1,-3.261869252E-1,-1.238721526E0,1.598808534E0
5.292472208E0,9.204695651E-1,-8.284978330E-2,-1.299449539E0,1.594583773E0
5.302506208E0,8.632213770E-1,1.007513264E-1,-1.276117979E0,1.543949180E0
5.312539208E0,7.475295375E-1,2.237665111E-1,-1.201952480E0,1.433025340E0
5.322573208E0,5.365399235E-1,2.988929996E-1,-9.770428383E-1,1.154047149E0
5.332607208E0,4.136313044E-1,3.220204917E-1,-6.405156970E-1,8.276765136E-1
5.342641208E0,3.822688861E-1,3.685453248E-1,-2.919742817E-1,6.059737114E-1
5.352674208E0,3.868510567E-1,3.522815868E-1,-7.439120114E-2,5.284790509E-1
5.362708208E0,3.713777161E-1,3.827119589E-1,-4.753201604E-3,5.333033324E-1
5.372742208E0,2.774378112E-1,4.729771811E-1,-2.384629029E-1,5.979495873E-1
5.382776208E0,2.352576055E-1,4.944423097E-1,-4.529218161E-1,7.106036238E-1
5.392810208E0,1.793770811E-1,5.632745630E-1,-5.043176723E-1,7.770396933E-1
5.402843208E0,2.876227838E-1,6.337899372E-1,-3.888842797E-1,7.972750675E-1
5.412877208E0,4.136814442E-1,5.550159556E-1,-1.944959342E-1,7.190297050E-1
5.422911208E0,4.078206338E-1,6.277246204E-1,5.020594776E-2,7.502509617E-1
5.432945208E0,5.056501065E-1,7.177360734E-1,1.587138981E-1,8.921979616E-1
5.442979208E0,6.267574909E-1,7.511143193E-1,2.485487652E-1,1.009343431E0
5.453012208E0,5.386952072E-1,8.470750219E-1,3.802052575E-1,1.073445228E0
5.463046208E0,5.860713950E-1,8.104492325E-1,5.947249818E-1,1.163617395E0
5.473080208E0,6.592099763E-1,7.678332630E-1,9.653688723E-1,1.398593140E0
5.483114208E0,7.179578291E-1,6.934268591E-1,1.290468800E0,1.631445364E0
5.493147208E0,7.382159463E-1,5.317492998E-1,1.437670115E0,1.701356947E0
5.503181208E0,6.574422169E-1,4.775874183E-1,1.369465853E0,1.592405957E0
5.513215208E0,4.872620751E-1,5.150315255E-1,1.075542694E0,1.288205686E0
5.523249208E0,2.265714204E-1,5.712659526E-1,6.610060948E-1,9.025566212E-1
5.533283208E0,-3.840071172E-2,6.915653980E-1,2.706664431E-1,7.436381094E-1
5.543316208E0,-2.358502208E-1,7.807611644E-1,3.498564541E-2,8.163561220E-1
5.553350208E0,-3.616958964E-1,8.899427140E-1,1.653183281E-2,9.607784641E-1
5.563384208E0,-4.794330919E-1,9.948639822E-1,2.810230315E-2,1.104717236E0
5.573418208E0,-4.772294225E-1,1.094828566E0,2.499053192E-1,1.220184485E0
5.583451208E0,-2.356483456E-1,1.242655533E0,9.326683187E-1,1.571493910E0
5.593485208E0,8.473434091E-2,1.157782613E0,1.804303401E0,2.145495572E0
5.603519208E0,3.477271906E-1,7.317182279E-1,2.781688301E0,2.897260010E0
5.613553208E0,6.482329984E-1,1.320821697E-1,3.535657523E0,3.597016242E0
5.623587208E0,8.388539828E-1,-5.518268842E-1,3.696627277E0,3.830566817E0
5.633620208E0,9.663076428E-1,-1.262412105E0,3.178704304E0,3.554095642E0
5.643654208E0,5.633438525E-1,-1.468197843E0,1.857693742E0,2.433924247E0
5.653688208E0,-2.889153108E-1,-1.147314928E0,1.006188869E-2,1.183175744E0
5.663722208E0,-9.886777742E-1,-8.477398503E-1,-1.659623405E0,2.109619975E0
5.673755208E0,-1.379841737E0,-4.972554052E-1,-2.726618055E0,3.096073670E0
5.683789208E0,-1.771627990E0,-1.727934086E-1,-3.214384598E0,3.674342341E0
5.693823208E0,-1.972680261E0,9.352796853E-2,-3.268674241E0,3.818958783E0
5.703857208E0,-2.059441539E0,2.091139734E-1,-2.842270133E0,3.516180828E0
5.713891208E0,-1.929288220E0,1.583262277E-1,-2.088726588E0,2.847805996E0
5.723924208E0,-1.401819667E0,9.187788427E-2,-1.178039122E0,1.833389238E0
5.733958208E0,-8.741239491E-1,1.177734482E-1,-5.080540431E-1,1.017881218E0
5.743992208E0,-7.515326875E-1,1.829801354E-1,-1.752270198E-1,7.930873967E-1
5.754026208E0,-1.176007069E0,5.593306160E-1,-2.104857302E-1,1.319146545E0
5.764059208E0,-4.623349562E-1,1.138470429E-1,-3.720021987E-1,6.042353819E-1
5.774093208E0,-3.349805528E-1,-2.484356216E-1,-3.143515760E-1,5.222539058E-1
5.784127208E0,-3.777630217E-1,-3.150488564E-1,-1.217858076E-1,5.067469442E-1
5.794161208E0,-4.546809509E-1,-3.559790736E-1,3.659789819E-1,6.836640134E-1
5.804194208E0,-5.556218733E-1,-5.591744953E-1,8.686962712E-1,1.173040917E0
5.814228208E0,-4.962602091E-1,-1.015276612E0,9.499795854E-1,1.476320428E0
5.824262208E0,-7.086341514E-1,-1.158609702E0,7.660998559E-1,1.559310037E0
5.834296208E0,-8.539927165E-1,-1.154372225E0,4.516670036E-1,1.505284649E0
5.844330208E0,-8.424000268E-1,-1.076845162E0,4.223736227E-2,1.367851345E0
5.854363208E0,-8.115135719E-1,-9.222649527E-1,-3.316435468E-1,1.272444247E0
5.864397208E0,-7.727326450E-1,-8.410313398E-1,-7.976800829E-1,1.393105513E0
5.874431208E0,-6.740374920E-1,-7.641255435E-1,-1.286206180E0,1.640896317E0
5.884465208E0,-5.252194217E-1,-5.653190419E-1,-1.702608626E0,1.869309282E0
5.894498208E0,-4.723426120E-1,-3.256346557E-1,-1.983402447E0,2.064710812E0
5.904532208E0,-5.361933298E-1,-1.310744020E-1,-2.082202849E0,2.154124530E0
5.914566208E0,-4.338283181E-1,8.000277400E-2,-2.002719308E0,2.050729646E0
5.924600208E0,-2.891186477E-1,2.833025685E-1,-1.735878114E0,1.782448530E0
5.934634375E0,-2.120652093E-1,4.260026971E-1,-1.469808751E0,1.544923207E0
5.944667375E0,-1.497778907E-1,4.892932516E-1,-1.220125042E0,1.323082167E0
5.954701375E0,-2.849777958E-1,4.245812389E-1,-9.921497047E-1,1.116173199E0
5.964735375E0,-4.655556026E-1,2.709058866E-1,-7.383413690E-1,9.139365381E-1
5.974769375E0,-4.714229912E-1,9.012225777E-2,-3.983070678E-1,6.237068046E-1
5.984802375E0,-3.419963345E-1,-3.402787149E-2,8.350701034E-2,3.536846189E-1
5.994836375E0,-2.384574942E-1,-6.645126700E-2,5.296390396E-1,5.846325853E-1
6.004870375E0,-8.341520905E-2,-5.177066267E-2,7.234941190E-1,7.301246735E-1
6.014904375E0,-3.989350587E-2,7.396581620E-2,6.824156749E-1,6.875707870E-1
6.024938375E0,-2.724232391E-2,1.316655555E-1,5.363738626E-1,5.529691522E-1
6.034971375E0,-2.032024384E-2,5.786696970E-2,4.159633201E-1,4.204604407E-1
6.045005375E0,-9.450284556E-2,3.580542505E-3,2.349808860E-1,2.532975027E-1
6.055039375E0,-2.154495777E-1,1.667567432E-2,4.298989892E-2,2.203286864E-1
6.065073375E0,-2.734769073E-1,2.767340988E-2,-3.738008022E-2,2.774035091E-1
6.075106375E0,-2.171394230E-1,7.157605916E-2,-1.555955780E-1,2.765549587E-1
6.085140375E0,-1.372328357E-1,2.568310538E-1,-2.366257077E-1,3.752156273E-1
6.095174375E0,8.328101546E-2,7.064117709E-1,-1.144124687E-2,7.113959655E-1
6.105208375E0,1.361815064E-1,9.222558895E-1,2.773357773E-1,9.726337757E-1
6.115241375E0,4.076988655E-1,1.026794457E0,5.289233404E-1,1.224861267E0
6.125275375E0,7.525436711E-1,1.145326290E0,8.966050315E-1,1.637679721E0
6.135309375E0,1.088209810E0,1.216235181E0,1.341279935E0,2.112453661E0
6.145343375E0,1.413035065E0,1.193179318E0,1.633025005E0,2.467208067E0
6.155377375E0,1.745402935E0,1.217104662E0,2.008115703E0,2.925799693E0
6.165410375E0,1.991422195E0,1.241368268E0,2.599636411E0,3.502123214E0
6.175444375E0,1.994026106E0,1.122844915E0,3.457569128E0,4.146288110E0
6.185478375E0,1.721752264E0,7.550003788E-1,4.312371245E0,4.704359912E0
6.195512375E0,1.418672073E0,2.613804799E-1,4.866059883E0,5.075380674E0
6.205545375E0,1.215726912E0,-2.207896936E-1,5.051840542E0,5.200753107E0
6.215579375E0,8.636467619E-1,-5.697866070E-1,4.534613972E0,4.651157531E0
6.225613375E0,6.535829084E-1,-3.965461788E-1,3.079661241E0,3.173126668E0
6.235647375E0,4.772465256E-1,-2.196138185E-1,1.440261601E0,1.533084458E0
6.245681375E0,4.156654045E-1,-2.379816771E-1,-5.051994324E-2,4.816277315E-1
6.255714375E0,6.004264556E-1,-2.985655555E-1,-1.186031097E0,1.362469479E0
6.265748375E0,8.778785925E-1,-3.886793348E-1,-1.877160292E0,2.108429086E0
6.275782375E0,1.148460543E0,-4.190354472E-1,-2.150635738E0,2.473820204E0
6.285816375E0,1.432206477E0,-3.768162113E-1,-2.149967401E0,2.610663838E0
6.295849375E0,1.554116099E0,-2.981743768E-1,-2.114316342E0,2.640931352E0
6.305883375E0,1.527324450E0,-3.147722831E-1,-1.996035941E0,2.532974741E0
6.315917375E0,1.613757699E0,-3.795550472E-1,-1.850016932E0,2.484117267E0
6.325951375E0,1.787681667E0,-4.138679704E-1,-1.686589594E0,2.492323594E0
6.335985375E0,1.800493062E0,-4.369410834E-1,-1.511727440E0,2.391236632E0
6.346018375E0,1.598812800E0,-6.103870413E-1,-1.270596453E0,2.131476028E0
6.356052375E0,1.206326782E0,-9.324335530E-1,-9.993651688E-1,1.823016011E0
6.366086375E0,8.392860921E-1,-1.238727081E0,-6.863227844E-1,1.646172801E0
6.376120375E0,5.579462877E-1,-1.487334318E0,-3.018701094E-1,1.616970314E0
6.386153375E0,3.235783361E-1,-1.650163195E0,7.270077109E-2,1.683159799E0
6.396187375E0,9.185493395E-2,-1.630220973E0,2.047215450E-1,1.645590672E0
6.406221375E0,-5.612830013E-2,-1.451007614E0,1.127986372E-1,1.456467306E0
6.416255375E0,-2.285346231E-1,-1.242181324E0,-2.353708953E-1,1.284773121E0
6.426288375E0,-1.849003610E-1,-1.053132656E0,-5.937859190E-1,1.223052841E0
6.436322375E0,1.746256337E-2,-8.760047060E-1,-8.730161941E-1,1.236869622E0
6.446356375E0,5.323524401E-2,-6.824063194E-1,-1.155108681E0,1.342679575E0
6.456390375E0,-1.119785652E-2,-5.865754250E-1,-1.536577522E0,1.644769468E0
6.466424375E0,-1.294494608E-1,-4.614262989E-1,-1.896764837E0,1.956371191E0
6.476457375E0,-3.261133964E-1,-3.242307392E-1,-2.131761510E0,2.180798628E0
6.486491375E0,-4.590070134E-1,-2.994709969E-1,-2.151782961E0,2.220481981E0
6.496525375E0,-3.143347652E-1,-2.831069791E-1,-1.987101395E0,2.031631822E0
6.506559375E0,4.776970536E-2,-2.334810752E-1,-1.600136172E0,1.617785871E0
6.516592375E0,4.159020706E-1,-1.853888959E-1,-1.159665416E0,1.245860126E0
6.526626375E0,5.997639661E-1,-9.689888835E-2,-9.262159163E-1,1.107692256E0
6.536660375E0,5.665968047E-1,-7.864797413E-3,-9.777977139E-1,1.130124844E0
6.546694375E0,5.281797208E-1,1.397408527E-1,-1.136263690E0,1.260792012E0
6.556727375E0,4.242540872E-1,2.177111346E-1,-1.275831465E0,1.362033625E0
6.566761375E0,3.099481110E-1,3.028541958E-1,-1.326987585E0,1.395952917E0
6.576795375E0,2.561666639E-1,4.054041258E-1,-1.254144727E0,1.342703564E0
6.586829375E0,2.538309205E-1,4.985014468E-1,-9.949540293E-1,1.141432148E0
6.596863375E0,1.769627658E-1,5.508685255E-1,-6.377324224E-1,8.610891913E-1
6.606896375E0,6.019408844E-2,5.464573860E-1,-2.226339054E-1,5.931314010E-1
6.616930375E0,-6.281839192E-2,5.749546686E-1,5.019600749E-2,5.805503083E-1
6.626964375E0,-6.951930106E-2,5.987490356E-1,3.442606688E-1,6.941532604E-1
6.636998375E0,3.991682164E-2,6.162336722E-1,6.282488233E-1,8.809278491E-1
6.647031375E0,1.728102925E-1,6.422952971E-1,7.978414661E-1,1.038728863E0
6.657065375E0,2.435277611E-1,6.443304205E-1,7.642761093E-1,1.028875810E0
6.667099375E0,3.054236086E-1,5.899229559E-1,5.934736776E-1,8.907882356E-1
6.677133375E0,5.192426902E-1,4.899618807E-1,4.448333627E-1,8.411613023E-1
6.687167375E0,8.497254185E-1,4.808773541E-1,4.983003026E-1,1.096165822E0
6.697200375E0,1.307601434E0,5.686221340E-1,5.030178362E-1,1.512011768E0
6.707234375E0,1.646752075E0,7.536075720E-1,2.796758330E-1,1.832467010E0
6.717268375E0,1.805478983E0,9.784704360E-1,5.614496469E-3,2.053579868E0
6.727302375E0,1.707612235E0,1.156488624E0,-1.733483094E-1,2.069650965E0
6.737335375E0,1.376647257E0,1.245539964E0,-1.144393659E-1,1.860006409E0
6.747369375E0,1.050193699E0,1.115705757E0,3.852402949E-1,1.579910195E0
6.757403375E0,7.924485791E-1,6.688141742E-1,1.516911582E0,1.837473237E0
6.767437375E0,5.652807426E-1,6.586508363E-2,3.020885029E0,3.074024543E0
6.777470375E0,4.913427007E-1,-6.329944235E-1,4.324100175E0,4.397720081E0
6.787504375E0,4.903680430E-1,-1.161727437E0,4.863975935E0,5.024771970E0
6.797538375E0,3.878434753E-1,-1.366082946E0,4.114471062E0,4.352640267E0
6.807572375E0,1.443994756E-1,-1.125119774E0,2.217950054E0,2.491194122E0
6.817606375E0,-1.266422857E-1,-6.726756755E-1,2.834718454E-1,7.408691652E-1
6.827639375E0,-3.314807750E-1,-2.626472792E-1,-1.265894707E0,1.334673183E0
6.837673375E0,-5.223053156E-1,6.644717395E-2,-2.120206828E0,2.184604097E0
6.847707375E0,-6.952910976E-1,1.339331058E-1,-1.955465620E0,2.079714782E0
6.857741375E0,-6.157531773E-1,-5.314037293E-2,-9.552122587E-1,1.137719796E0
6.867774375E0,-4.146181682E-1,-4.093755546E-1,2.639298660E-1,6.396526747E-1
6.877808375E0,-2.426685859E-1,-6.781276193E-1,1.232970790E0,1.427922294E0
6.887842375E0,-6.270919517E-3,-7.326248387E-1,1.778982033E0,1.923942710E0
6.897876375E0,2.328859017E-1,-7.355811909E-1,1.798435135E0,1.956957962E0
6.907909375E0,4.273998161E-1,-7.090155360E-1,1.476010893E0,1.692330284E0
6.917943375E0,5.676388516E-1,-6.163520783E-1,9.897470838E-1,1.296804935E0
6.927977375E0,7.102857705E-1,-5.860406971E-1,5.299887031E-1,1.062467694E0
6.938011500E0,8.092497493E-1,-5.622296655E-1,2.232513714E-1,1.010360593E0
6.948045500E0,7.916616169E-1,-5.828279445E-1,-4.509606600E-2,9.840986657E-1
6.958078500E0,5.819825833E-1,-7.026061106E-1,-1.683524483E-1,9.277400609E-1
6.968112500E0,2.976174295E-1,-8.050028434E-1,-8.720186591E-2,8.626759981E-1
6.978146500E0,3.839822665E-2,-9.798065248E-1,8.648324311E-2,9.843650752E-1
6.988180500E0,-1.379614719E-1,-1.154114655E0,1.199094361E-1,1.168500011E0
6.998213500E0,-1.759734169E-1,-1.193187211E0,-3.016753972E-2,1.206471071E0
7.008247500E0,-6.902177610E-2,-1.130773154E0,-3.668677586E-1,1.190799683E0
7.018281500E0,1.134951867E-2,-1.060396944E0,-8.121320611E-1,1.335712909E0
7.028315500E0,-4.211749434E-3,-1.002230597E0,-1.276089912E0,1.622618061E0
7.038348500E0,1.113359562E-1,-9.503368503E-1,-1.590169008E0,1.855848404E0
7.048382500E0,2.281019291E-1,-8.873784176E-1,-1.772300420E0,1.995123987E0
7.058416500E0,2.129547170E-1,-8.419701102E-1,-1.890994220E0,2.080894643E0
7.068450500E0,1.243464495E-1,-7.953967452E-1,-1.938745506E0,2.099250381E0
7.078484500E0,8.328700885E-2,-7.401484510E-1,-1.959860387E0,2.096618514E0
7.088517500E0,-4.068024874E-2,-6.639074832E-1,-1.841099344E0,1.957568600E0
7.098551500E0,-9.309688255E-2,-5.351640737E-1,-1.514844006E0,1.609291763E0
7.108585500E0,-1.896288581E-2,-4.107674843E-1,-1.110723637E0,1.184397110E0
7.118619500E0,6.695792824E-3,-2.947929320E-1,-7.215206838E-1,7.794483969E-1
7.128652500E0,-1.235984445E-2,-2.125319633E-1,-5.257500565E-1,5.672175271E-1
7.138686500E0,-7.198602207E-2,-1.026113257E-1,-4.995586234E-1,5.150435805E-1
7.148720500E0,-1.339966211E-1,-1.208619475E-2,-4.716931325E-1,4.905054351E-1
7.158754500E0,-1.730351179E-1,5.444284022E-2,-4.633918405E-1,4.976315632E-1
7.168787500E0,-1.949592530E-1,1.293316394E-1,-3.956565249E-1,4.596518998E-1
7.178821500E0,-1.742931464E-1,2.438815176E-1,-2.373221111E-1,3.823324207E-1
7.188855500E0,-1.621191703E-1,3.441691598E-1,7.343284249E-2,3.874627960E-1
7.198889500E0,2.828751370E-2,3.577440557E-1,4.234816700E-1,5.550835231E-1
7.208922500E0,3.222912908E-1,3.554244652E-1,7.969947892E-1,9.302681983E-1
7.218956500E0,5.589485005E-1,3.929489717E-1,1.083011343E0,1.280525630E0
7.228990500E0,6.279343162E-1,3.616347930E-1,1.171600753E0,1.377581052E0
7.239024500E0,5.877980778E-1,3.281550980E-1,1.160983379E0,1.342041264E0
7.249058500E0,5.086592299E-1,2.729538739E-1,1.140608171E0,1.278368112E0
7.259091500E0,4.571466487E-1,1.833581579E-1,1.050738221E0,1.160454256E0
7.269125500E0,4.147055840E-1,9.716376722E-2,9.673551714E-1,1.056975660E0
7.279159500E0,4.365645958E-1,8.473083258E-2,9.528248405E-1,1.051495667E0
7.289193500E0,5.860855014E-1,1.273570347E-1,7.179398489E-1,9.354964756E-1
7.299226500E0,7.102596773E-1,2.292400897E-1,4.106885469E-1,8.518714166E-1
7.309260500E0,8.270158562E-1,3.310500544E-1,2.276864845E-1,9.194511951E-1
7.319294500E0,1.023968352E0,5.121023628E-1,1.859133911E-1,1.159880944E0
7.329328500E0,1.155725709E0,7.275517944E-1,2.037462294E-2,1.365814282E0
7.339362500E0,1.249008094E0,8.454597285E-1,-9.676323295E-2,1.511352538E0
7.349395500E0,1.389490374E0,7.806044590E-1,2.169357938E-1,1.608442712E0
7.359429500E0,1.566715972E0,5.780022374E-1,1.063426679E0,1.979788328E0
7.369463500E0,1.630280615E0,1.924108171E-1,2.152548947E0,2.707083998E0
7.379497500E0,1.579084733E0,-4.117349061E-1,3.159250032E0,3.555825501E0
7.389530500E0,1.397660250E0,-1.022309643E0,3.672150832E0,4.059958487E0
7.399564500E0,1.073114784E0,-1.419908905E0,3.534276996E0,3.957124022E0
7.409598500E0,6.864866526E-1,-1.538497455E0,2.688404746E0,3.172657943E0
7.419632500E0,4.000555314E-1,-1.420592737E0,1.379775079E0,2.020373090E0
7.429665500E0,2.294764633E-1,-1.272742381E0,1.997034645E-1,1.308592408E0
7.439699500E0,2.001698530E-1,-1.167312113E0,-7.795811963E-1,1.417897168E0
7.449733500E0,2.381466416E-1,-1.075765181E0,-1.539593516E0,1.893233409E0
7.459767500E0,3.920207262E-1,-9.436833036E-1,-1.967309740E0,2.216873032E0
7.469801500E0,6.197541346E-1,-8.435099745E-1,-2.058985895E0,2.309767776E0
7.479834500E0,9.936420603E-1,-7.627265972E-1,-1.856275207E0,2.239382516E0
7.489868500E0,1.449357384E0,-7.306914568E-1,-1.482877863E0,2.198516224E0
7.499902500E0,1.764713950E0,-7.203179115E-1,-1.062204611E0,2.182052211E0
7.509936500E0,1.997605187E0,-7.253395003E-1,-7.369327748E-1,2.249358528E0
7.519969500E0,2.089842821E0,-7.101770854E-1,-2.828613961E-1,2.225265171E0
7.530003500E0,2.019970202E0,-8.407775706E-1,2.247511822E-1,2.199477128E0
7.540037500E0,1.915337787E0,-1.007112145E0,7.365252239E-1,2.285883443E0
7.550071500E0,1.793731342E0,-1.150039730E0,1.150543760E0,2.421531427E0
7.560104500E0,1.575132893E0,-1.281797087E0,1.361166900E0,2.444754125E0
7.570138500E0,1.273669603E0,-1.325737451E0,1.201370682E0,2.196156999E0
7.580172500E0,9.439183617E-1,-1.265652632E0,7.097490692E-1,1.731069669E0
7.590206500E0,7.413325122E-1,-1.124529498E0,1.071198213E-1,1.351153263E0
7.600240500E0,5.800853810E-1,-1.008728315E0,-4.609360099E-1,1.251596528E0
7.610273500E0,4.592965968E-1,-9.444826180E-1,-9.360246205E-1,1.406820127E0
7.620307500E0,4.807558782E-1,-8.575000226E-1,-1.225893320E0,1.571383764E0
7.630341500E0,4.515048165E-1,-7.505977178E-1,-1.317639057E0,1.582221924E0
7.640375500E0,5.122185762E-1,-7.000795287E-1,-1.262243705E0,1.531580356E0
7.650408500E0,7.163520375E-1,-6.304368514E-1,-1.232957341E0,1.559100597E0
7.660442500E0,9.383630683E-1,-4.656903809E-1,-1.280282950E0,1.654242187E0
7.670476500E0,1.117600401E0,-3.393712270E-1,-1.381485389E0,1.809062013E0
7.680510500E0,1.254891270E0,-2.754108739E-1,-1.418629242E0,1.913925854E0
7.690543500E0,1.391318652E0,-2.615588200E-1,-1.381186597E0,1.977841506E0
7.700577500E0,1.472015198E0,-2.037169933E-1,-1.308046115E0,1.979725738E0
7.710611500E0,1.380923618E0,-2.053922206E-1,-1.124147090E0,1.792440427E0
7.720645500E0,1.240045044E0,-2.938874906E-1,-8.427165073E-1,1.527826128E0
7.730679500E0,1.129063063E0,-3.740037006E-1,-5.145602399E-1,1.295929940E0
7.740712500E0,1.006895213E0,-3.956723124E-1,-2.864328754E-1,1.119123917E0
7.750746500E0,8.874471954E-1,-4.315297776E-1,-1.296087974E-1,9.952783098E-1
7.760780500E0,8.307049377E-1,-4.267531872E-1,-5.765003800E-2,9.356882510E-1
7.770814500E0,8.439603563E-1,-3.261050642E-1,-4.642689228E-3,9.047845878E-1
7.780847500E0,9.438195437E-1,-1.933563119E-1,7.085655928E-3,9.634480790E-1
7.790881500E0,1.008871133E0,-5.317750275E-2,-1.206222117E-1,1.017447064E0
7.800915500E0,9.722577694E-1,8.497349203E-2,-3.484244710E-1,1.036294011E0
7.810949500E0,9.489474788E-1,2.259381670E-1,-6.146873760E-1,1.152991736E0
7.820983500E0,9.514535223E-1,3.470147073E-1,-7.723949683E-1,1.273686382E0
7.831016500E0,9.942353334E-1,4.640993536E-1,-6.344363469E-1,1.267438987E0
7.841050500E0,1.096024614E0,5.669781893E-1,-2.951288545E-1,1.268792836E0
7.851084500E0,1.171233621E0,5.134498537E-1,1.789996433E-1,1.291301599E0
7.861118500E0,1.307836492E0,3.527063870E-1,7.233777595E-1,1.535615013E0
7.871151500E0,1.479297905E0,1.530274808E-1,1.252756598E0,1.944515054E0
7.881185500E0,1.633862473E0,-1.084892392E-2,1.582128502E0,2.274369116E0
7.891219500E0,1.652207966E0,-1.276716149E-1,1.502260213E0,2.236711191E0
7.901253500E0,1.513797355E0,-1.180792576E-1,1.103297088E0,1.876909589E0
7.911286500E0,1.259939610E0,-1.776968837E-2,5.612555194E-1,1.379409780E0
7.921320500E0,9.660038068E-1,4.210696936E-2,1.337609053E-1,9.761292596E-1
7.931354500E0,7.782869151E-1,5.605725646E-2,-1.269079685E-2,7.804063010E-1
7.941388875E0,7.816041137E-1,8.499571145E-2,2.298084390E-1,8.191099927E-1
7.951422875E0,1.023530395E0,3.778353810E-2,8.534671980E-1,1.333209783E0
7.961455875E0,1.431142722E0,-9.058857322E-2,1.750489136E0,2.262871626E0
7.971489875E0,1.863314670E0,-3.281714702E-1,2.649717813E0,3.255862799E0
7.981523875E0,2.069535734E0,-7.011630177E-1,3.289664576E0,3.949240529E0
7.991557875E0,1.916784534E0,-1.210947837E0,3.270050676E0,3.979156825E0
8.001590875E0,1.522310024E0,-1.529903510E0,2.624902230E0,3.398256064E0
8.011624875E0,1.033926379E0,-1.599336272E0,1.622645028E0,2.501970655E0
8.021658875E0,5.777324980E-1,-1.481373374E0,5.919189030E-1,1.696646664E0
8.031692875E0,2.210361537E-1,-1.296730583E0,-1.821594787E-1,1.327986921E0
8.041725875E0,-2.300607098E-2,-1.148043491E0,-6.574217516E-1,1.323153995E0
8.051759875E0,-2.317339819E-1,-1.068943527E0,-8.632566065E-1,1.393396164E0
8.061793875E0,-3.670702916E-1,-9.342131531E-1,-7.457562232E-1,1.250458779E0
8.071827875E0,-2.064062557E-1,-9.220228779E-1,-3.810624593E-1,1.018792583E0
8.081861875E0,2.287981863E-1,-8.970581907E-1,1.862782574E-1,9.443312961E-1
8.091894875E0,8.065831997E-1,-7.997248542E-1,6.732133269E-1,1.320360740E0
8.101928875E0,1.300557001E0,-7.745818269E-1,8.495940024E-1,1.735867359E0
8.111962875E0,1.543930250E0,-7.712354654E-1,7.993746060E-1,1.901979106E0
8.121996875E0,1.719582362E0,-7.519022316E-1,7.630452704E-1,2.025971014E0
8.132029875E0,1.909547727E0,-7.093140364E-1,8.004990256E-1,2.188674854E0
8.142063875E0,1.917694945E0,-7.119628251E-1,8.906075424E-1,2.231059560E0
8.152097875E0,1.774603346E0,-8.533882606E-1,1.075212327E0,2.243561924E0
8.162131875E0,1.554422786E0,-1.053973485E0,1.317098774E0,2.293869980E0
8.172164875E0,1.151255439E0,-1.201409858E0,1.391143820E0,2.168883552E0
8.182198875E0,7.168843534E-1,-1.332269375E0,1.191056194E0,1.925481685E0
8.192232875E0,3.492815267E-1,-1.360787416E0,8.179687518E-1,1.625673046E0
8.202266875E0,8.987714980E-2,-1.343339909E0,3.996454954E-1,1.404406114E0
8.212300875E0,4.905101303E-2,-1.273851013E0,-3.464007497E-2,1.275265596E0
8.222333875E0,1.278764136E-1,-1.096769257E0,-4.216941762E-1,1.181981877E0
8.232367875E0,2.340352085E-1,-9.611033285E-1,-7.015968812E-1,1.212736686E0
8.242401875E0,4.103486775E-1,-8.643418497E-1,-9.302265215E-1,1.334464032E0
8.252435875E0,5.651964331E-1,-7.044070530E-1,-1.054058855E0,1.388047684E0
8.262468875E0,6.477104035E-1,-5.696445197E-1,-9.845722979E-1,1.308971449E0
8.272502875E0,6.545579316E-1,-5.534717059E-1,-8.810619628E-1,1.229246597E0
8.282536875E0,6.192054465E-1,-4.913748604E-1,-8.723338240E-1,1.177213209E0
8.292570875E0,4.874200230E-1,-3.098533130E-1,-9.051478136E-1,1.073722459E0
8.302603875E0,3.330568188E-1,-1.678314614E-1,-8.182809931E-1,8.992652710E-1
8.312637875E0,2.842157574E-1,-1.011562461E-1,-5.285754311E-1,6.086075659E-1
8.322671875E0,3.382777977E-1,-1.150375360E-1,-9.352679908E-2,3.693409878E-1
8.332705875E0,4.221697741E-1,-1.305928838E-1,2.679743850E-1,5.168095302E-1
8.342739875E0,4.513708056E-1,-1.310974985E-1,4.877408159E-1,6.773575583E-1
8.352772875E0,4.480221783E-1,-1.878365403E-1,4.967735946E-1,6.948312331E-1
8.362806875E0,3.385727897E-1,-2.390207273E-1,3.144305134E-1,5.202201359E-1
8.372840875E0,2.840682614E-1,-2.029398984E-1,1.073256433E-1,3.652371465E-1
8.382874875E0,3.241383532E-1,-1.525041550E-1,-8.818536758E-2,3.689171294E-1
8.392907875E0,3.764059561E-1,-8.802807748E-2,-2.702688324E-1,4.716732216E-1
8.402941875E0,4.150344899E-1,-4.818281114E-2,-4.316180706E-1,6.007240381E-1
8.412975875E0,3.017718031E-1,-7.853453815E-2,-6.732893407E-1,7.419922043E-1
8.423009875E0,1.004200085E-1,-1.819004470E-1,-7.684896129E-1,7.960830584E-1
8.433042875E0,3.855025426E-2,-3.452003163E-1,-6.056452417E-1,6.981801625E-1
8.443076875E0,5.829933476E-2,-4.317975801E-1,-2.661336815E-1,5.105635113E-1
8.453110875E0,5.692070749E-2,-5.339490223E-1,8.448875785E-2,5.435806063E-1
8.463144875E0,1.052792640E-1,-5.933011848E-1,3.572654611E-1,7.005202559E-1
8.473177875E0,2.206399683E-1,-5.784445792E-1,4.767223227E-1,7.813733422E-1
8.483211875E0,3.230360068E-1,-5.253115153E-1,4.905205822E-1,7.879815299E-1
8.493245875E0,4.951074305E-1,-4.022545230E-1,3.703643936E-1,7.376380231E-1
8.503279875E0,6.746094958E-1,-2.537469399E-1,2.538059968E-1,7.641354366E-1
8.513313875E0,7.493334766E-1,-1.323026097E-1,2.253417510E-1,7.935890274E-1
8.523346875E0,7.543656635E-1,-6.823232889E-2,2.146512866E-1,7.872727481E-1
8.533380875E0,6.610666866E-1,-1.230078757E-2,1.892094666E-1,6.877213794E-1
8.543414875E0,5.120416979E-1,7.541738749E-3,2.312977248E-1,5.619094373E-1
8.553448875E0,4.310564455E-1,5.384700894E-2,2.836373216E-1,5.188056378E-1
8.563481875E0,4.718378511E-1,1.926271641E-1,2.241588593E-1,5.567615075E-1
8.573515875E0,6.238096172E-1,3.116495776E-1,9.309059680E-2,7.035124426E-1
8.583549875E0,7.780001823E-1,4.071960050E-1,-4.480428994E-2,8.792612209E-1
8.593583875E0,9.908269914E-1,5.177580822E-1,-2.548871469E-1,1.146638137E0
8.603617875E0,1.315727018E0,6.852357870E-1,-1.564153576E-1,1.491694148E0
8.613650875E0,1.748254330E0,4.817556059E-1,5.042901903E-1,1.882230130E0
8.623684875E0,2.116303957E0,-1.025297570E-1,1.497594135E0,2.594618081E0
8.633718875E0,2.308344499E0,-7.986840498E-1,2.598761668E0,3.566498667E0
8.643752875E0,2.315944564E0,-1.514590237E0,3.350048772E0,4.345159328E0
8.653785875E0,2.023464645E0,-2.028649955E0,3.359627096E0,4.415532135E0
8.663819875E0,1.515984798E0,-2.275674936E0,2.553952700E0,3.741601357E0
8.673853875E0,9.206347489E-1,-2.194719651E0,1.338940464E0,2.730773563E0
8.683887875E0,4.739369284E-1,-2.164346581E0,4.010546744E-1,2.251634337E0
8.693920875E0,3.413757256E-1,-2.279080062E0,-2.406719810E-1,2.317038264E0
8.703954875E0,3.235811135E-1,-2.286558359E0,-5.766746271E-1,2.380253661E0
8.713988875E0,3.315570811E-1,-2.274475965E0,-8.973967445E-1,2.467486966E0
8.724022875E0,3.342920431E-1,-2.251335901E0,-1.301153417E0,2.621691195E0
8.734056875E0,2.862553393E-1,-2.145465630E0,-1.612731659E0,2.699234760E0
8.744089875E0,2.935914753E-1,-1.914863724E0,-1.856664632E0,2.683300689E0
8.754123875E0,3.654615764E-1,-1.740098049E0,-1.974020004E0,2.656738294E0
8.764157875E0,5.160351270E-1,-1.490148876E0,-1.991527737E0,2.540279247E0
8.774191875E0,6.749661760E-1,-1.300095656E0,-1.873894622E0,2.378509850E0
8.784224875E0,9.427796164E-1,-1.195021191E0,-1.571809920E0,2.188034615E0
8.794258875E0,1.269505070E0,-1.084800006E0,-1.113475921E0,2.007053264E0
8.804292875E0,1.607467557E0,-8.948725015E-1,-5.698719764E-1,1.926006960E0
8.814326875E0,1.985246805E0,-6.411547977E-1,1.533233500E-1,2.091839477E0
8.824359875E0,2.420611479E0,-5.463913125E-1,1.081301032E0,2.706864481E0
8.834393875E0,2.802993801E0,-7.955481881E-1,2.082375927E0,3.581335040E0
8.844427875E0,2.923555786E0,-1.194413957E0,3.018746118E0,4.368824929E0
8.854461875E0,2.763713375E0,-1.648545270E0,3.654458327E0,4.869381767E0
8.864495875E0,2.399874474E0,-1.959400796E0,3.775369976E0,4.883857843E0
8.874528875E0,1.899654239E0,-2.152947727E0,3.139912705E0,4.254752865E0
8.884562875E0,1.425014402E0,-2.072405840E0,1.984475995E0,3.203697393E0
8.894596875E0,1.083880678E0,-1.942153556E0,8.980931479E-1,2.398609818E0
8.904630875E0,8.421683308E-1,-1.835101855E0,-1.950537586E-1,2.028519727E0
8.914663875E0,6.193151549E-1,-1.593732301E0,-1.303537912E0,2.150056975E0
8.924697875E0,5.454811934E-1,-1.229367151E0,-2.003967689E0,2.413458063E0
8.934731875E0,6.063417913E-1,-1.024971003E0,-2.175826128E0,2.480410301E0
8.944765583E0,7.433003926E-1,-9.640105641E-1,-2.055189298E0,2.388642897E0
8.954798583E0,8.723965354E-1,-9.684453848E-1,-1.735085231E0,2.170134313E0
8.964832583E0,9.384732883E-1,-1.027099390E0,-1.326193534E0,1.922096397E0
8.974866583E0,9.452218522E-1,-1.103225752E0,-1.001126350E0,1.764314422E0
8.984900583E0,9.500626159E-1,-1.089434802E0,-8.192685878E-1,1.661531878E0
8.994934583E0,8.662093042E-1,-1.037104853E0,-8.736237198E-1,1.609075336E0
9.004967583E0,6.822538532E-1,-8.380837584E-1,-1.021469983E0,1.487029130E0
9.015001583E0,4.756470197E-1,-5.596870038E-1,-1.075975388E0,1.302771149E0
9.025035583E0,2.668201447E-1,-4.115170974E-1,-9.979630065E-1,1.111966489E0
9.035069583E0,-8.714982569E-3,-3.593578872E-1,-8.653569263E-1,9.370467715E-1
9.045102583E0,-2.808943927E-1,-2.986307520E-1,-6.890896869E-1,8.018270278E-1
9.055136583E0,-5.232411624E-1,-2.577239236E-1,-4.800645912E-1,7.554236868E-1
9.065170583E0,-6.305796696E-1,-1.883674675E-1,-2.223719501E-1,6.946670474E-1
9.075204583E0,-5.883652577E-1,-1.522030234E-2,5.763015747E-2,5.913768419E-1
9.085238583E0,-4.103368369E-1,2.451097253E-1,3.090218389E-1,5.691657000E-1
9.095271583E0,-2.564917691E-1,4.833244139E-1,5.249840713E-1,7.582867477E-1
9.105305583E0,-7.832842380E-2,6.747692710E-1,7.054127741E-1,9.793140931E-1
9.115339583E0,4.650100574E-2,8.488262630E-1,7.255459070E-1,1.117624817E0
9.125373583E0,1.317979950E-1,9.854756927E-1,7.315258545E-1,1.234367501E0
9.135406583E0,1.668865514E-1,1.020841700E0,8.261747342E-1,1.323832915E0
9.145440583E0,2.281779429E-1,1.049566439E0,9.053618217E-1,1.404754395E0
9.155474583E0,2.472547764E-1,1.055617722E0,9.532037401E-1,1.443627746E0
9.165508583E0,3.068262094E-1,9.759093556E-1,1.015155575E0,1.441208602E0
9.175541583E0,4.501037505E-1,8.623049721E-1,1.065943320E0,1.443051771E0
9.185575583E0,5.602591538E-1,7.776668179E-1,1.026164128E0,1.404161250E0
9.195609583E0,6.190929607E-1,7.052487597E-1,8.834090352E-1,1.288822498E0
9.205643583E0,7.533559956E-1,7.156389695E-1,7.250909936E-1,1.267060117E0
9.215677583E0,8.800708598E-1,8.165393999E-1,4.819444710E-1,1.293650564E0
9.225710583E0,8.467990333E-1,9.754506415E-1,5.210512340E-2,1.292782851E0
9.235744583E0,6.066467236E-1,1.183227941E0,-4.070159107E-1,1.390579218E0
9.245778583E0,4.225380756E-1,1.330222850E0,-5.569022673E-1,1.502721328E0
9.255812583E0,2.657946892E-1,1.467102075E0,-2.810119218E-1,1.517235320E0
9.265845583E0,8.161762878E-2,1.436110663E0,2.934214675E-1,1.468050214E0
9.275879583E0,-1.624995317E-1,1.200639780E0,9.546018094E-1,1.542467696E0
9.285913583E0,-3.520870207E-1,8.217475149E-1,1.644670905E0,1.871944613E0
9.295947583E0,-4.610193327E-1,4.252834895E-1,2.131653337E0,2.222015036E0
9.305980583E0,-3.947282063E-1,1.657817200E-1,2.229663196E0,2.270394658E0
9.316014583E0,-3.442481703E-1,-3.870856762E-3,1.834010180E0,1.866042638E0
9.326048583E0,-3.621614809E-1,-3.885474801E-4,9.224701899E-1,9.910158125E-1
9.336082583E0,-5.753497942E-1,1.242740902E-1,-1.655902237E-1,6.114667263E-1
9.346116583E0,-7.196592958E-1,2.146547949E-1,-9.250944203E-1,1.191547678E0
9.356149583E0,-7.648666781E-1,2.432541114E-1,-1.305675069E0,1.532638569E0
9.366183583E0,-8.727978006E-1,2.095797041E-1,-1.268361647E0,1.553847136E0
9.376217583E0,-9.895208696E-1,1.603052178E-1,-9.456099612E-1,1.378052072E0
9.386251583E0,-1.034970327E0,6.425271392E-2,-4.482019436E-1,1.129680030E0
9.396284583E0,-1.030911117E0,-6.100721687E-2,1.284925640E-1,1.040677640E0
9.406318583E0,-9.148147228E-1,-1.332393336E-1,6.381095678E-1,1.123308737E0
9.416352583E0,-6.785995627E-1,-1.349247935E-1,1.232920504E0,1.413787479E0
9.426386583E0,-2.684249861E-1,-1.133207935E-1,1.860460644E0,1.883137644E0
9.436419583E0,2.305430686E-1,-9.494591832E-2,2.384944779E0,2.397942124E0
9.446453583E0,6.651826148E-1,-1.400261968E-1,2.488544576E0,2.579714975E0
9.456487583E0,8.544505535E-1,-2.068958321E-1,2.389781011E0,2.546359148E0
9.466521583E0,8.309530789E-1,-3.836530682E-1,1.904247519E0,2.112778102E0
9.476555583E0,6.703528690E-1,-4.574455145E-1,9.463303381E-1,1.246663738E0
9.486588583E0,3.372751464E-1,-3.522792479E-1,-2.678106630E-1,5.563971101E-1
9.496622583E0,3.327993952E-2,-2.346785849E-1,-1.278273847E0,1.300063699E0
9.506656583E0,-2.665500764E-1,-1.485885671E-1,-2.025638055E0,2.048496286E0
9.516690583E0,-4.852903209E-1,-8.316787183E-3,-2.392336829E0,2.441075863E0
9.526723583E0,-7.136968900E-1,2.535966665E-2,-2.365194054E0,2.470657660E0
9.536757583E0,-7.779462417E-1,-8.618883580E-2,-2.002154467E0,2.149709604E0
9.546791583E0,-7.242807157E-1,-2.277689302E-1,-1.469539195E0,1.654087871E0
9.556825583E0,-6.524264022E-1,-2.572105381E-1,-9.298780274E-1,1.164684772E0
9.566858583E0,-4.944254259E-1,-2.925572491E-1,-5.411270642E-1,7.892178061E-1
9.576892583E0,-4.297677192E-1,-2.790542740E-1,-3.131973356E-1,6.005532044E-1
9.586926583E0,-4.617887532E-1,-2.721899351E-1,-2.342932534E-1,5.850038820E-1
9.596960583E0,-5.551069529E-1,-2.764677581E-1,-2.467197561E-1,6.674194996E-1
9.606994583E0,-6.580237225E-1,-2.497310722E-1,-1.811970270E-1,7.267690075E-1
9.617027583E0,-7.111758629E-1,-2.224008939E-1,-2.949277103E-2,7.457231987E-1
9.627061583E0,-6.732603239E-1,-2.163808930E-1,1.196094739E-1,7.172214309E-1
9.637095583E0,-6.364965402E-1,-1.867875499E-1,2.016049790E-1,6.932979173E-1
9.647129583E0,-5.428898536E-1,-1.912603775E-1,1.903485042E-1,6.062528170E-1
9.657162583E0,-4.339742792E-1,-1.828421411E-1,1.312799317E-1,4.888755916E-1
9.667196583E0,-3.575732439E-1,-1.946497160E-1,-2.221766531E-2,4.077263314E-1
9.677230583E0,-3.351689793E-1,-2.213691527E-1,-2.227935344E-1,4.593250542E-1
9.687264583E0,-2.758889569E-1,-2.273499772E-1,-3.396197337E-1,4.930966357E-1
9.697298583E0,-1.651744866E-1,-1.858981884E-1,-3.917973626E-1,4.640537908E-1
9.707331583E0,-1.899983291E-1,-1.616646954E-1,-4.434773934E-1,5.088290845E-1
9.717365583E0,-2.373617260E-1,-1.631595361E-1,-5.337724364E-1,6.065266994E-1
9.727399583E0,-2.529501837E-1,-1.108977073E-1,-6.420500064E-1,6.989351240E-1
9.737433583E0,-2.400592659E-1,-1.060509503E-1,-6.945708668E-1,7.424984473E-1
9.747466583E0,-2.127587622E-1,-1.263855198E-1,-7.909885293E-1,8.287957794E-1
9.757500583E0,-1.944144387E-1,-1.092379752E-1,-9.150015414E-1,9.417843330E-1
9.767534583E0,-2.353971346E-1,-8.226769298E-2,-1.027697852E0,1.057517215E0
9.777568583E0,-2.648473672E-1,-7.114307284E-3,-1.168577158E0,1.198235083E0
9.787601583E0,-3.259466777E-1,1.391900450E-1,-1.304940659E0,1.352214934E0
9.797635583E0,-3.924727160E-1,3.905951750E-1,-1.262253646E0,1.378362684E0
9.807669583E0,-5.774834432E-1,5.696658620E-1,-8.773086351E-1,1.194854285E0
9.817703583E0,-8.029028159E-1,5.139331260E-1,-2.842892861E-1,9.947867048E-1
9.827737583E0,-1.014342446E0,4.036745194E-1,4.692460728E-1,1.188291039E0
9.837770583E0,-1.098872573E0,3.801684201E-1,1.274858488E0,1.725489242E0
9.847804583E0,-1.000872069E0,5.384314978E-1,1.844086686E0,2.166173835E0
9.857838583E0,-6.607972030E-1,9.150334087E-1,2.079565170E0,2.366121379E0
9.867872583E0,-2.131349574E-1,1.295583067E0,1.981263535E0,2.376839748E0
9.877905583E0,2.623885399E-1,1.618039176E0,1.498130910E0,2.220651874E0
9.887939583E0,6.052580099E-1,2.078565004E0,8.336609244E-1,2.319862123E0
9.897973583E0,8.383919066E-1,2.402318026E0,2.139987373E-1,2.553395454E0
9.908007583E0,9.482330221E-1,2.544530204E0,-4.378628969E-2,2.715823460E0
9.918041583E0,1.041691555E0,2.600652072E0,5.454399705E-2,2.802050596E0
9.928074583E0,1.113997054E0,2.483815641E0,4.693647712E-1,2.762360017E0
9.938108583E0,1.088384203E0,2.217086420E0,1.004824714E0,2.666406772E0
9.948141833E0,1.041534850E0,1.769642568E0,1.706366631E0,2.669853318E0
9.958175833E0,1.147620445E0,1.172347443E0,2.431440668E0,2.933144206E0
9.968208833E0,1.268997093E0,5.311680865E-1,2.982010986E0,3.284034512E0
9.978242833E0,1.210009797E0,-1.144422895E-1,3.062147661E0,3.294536241E0
9.988276833E0,1.026075104E0,-5.999076614E-1,2.431956393E0,2.706867417E0
9.998310833E0,7.195684446E-1,-8.078296798E-1,1.234423238E0,1.641392174E0
1.000834383E1,4.062560651E-1,-8.355109835E-1,-4.635380208E-2,9.301995855E-1
1.001837783E1,1.774847759E-1,-7.606707162E-1,-1.048074814E0,1.307127232E0
1.002841183E1,3.747173533E-2,-6.818929338E-1,-1.568344275E0,1.710580565E0
1.003844583E1,1.061538613E-1,-7.141871059E-1,-1.582129671E0,1.739099238E0
1.004847983E1,2.533715487E-1,-8.531742525E-1,-1.153761483E0,1.457144127E0
1.005851283E1,4.018401016E-1,-1.039425613E0,-5.632558519E-1,1.248654566E0
1.006854683E1,4.196078897E-1,-1.239597439E0,-1.780559027E-1,1.320748461E0
1.007858083E1,3.508848332E-1,-1.368529129E0,-4.523522973E-2,1.413519851E0
1.008861483E1,2.451999186E-1,-1.440373283E0,-1.233867753E-1,1.466295499E0
1.009864783E1,2.398302743E-1,-1.390156810E0,-3.039979112E-1,1.443076314E0
1.010868183E1,2.122248383E-1,-1.207609076E0,-5.842035019E-1,1.358179957E0
1.011871583E1,1.058056596E-1,-9.983459991E-1,-8.643640691E-1,1.324769722E0
1.012874983E1,-3.687181100E-2,-8.878143275E-1,-1.001502911E0,1.338873366E0
1.013878283E1,-1.580297738E-1,-8.544284803E-1,-9.921269006E-1,1.318839347E0
1.014881683E1,-3.384479517E-1,-9.169773155E-1,-9.339003271E-1,1.351874341E0
1.015885083E1,-5.422431515E-1,-9.719236010E-1,-8.671145993E-1,1.410868828E0
1.016888483E1,-6.940247369E-1,-9.942587954E-1,-8.303818059E-1,1.469610435E0
1.017891883E1,-7.048217668E-1,-9.865667832E-1,-7.327566934E-1,1.416693373E0
1.018895183E1,-6.384655170E-1,-9.416625059E-1,-6.628655094E-1,1.316722133E0
1.019898583E1,-4.906769952E-1,-8.671561146E-1,-7.086948162E-1,1.222690469E0
1.020901983E1,-3.877114744E-1,-8.247029901E-1,-8.690751708E-1,1.259264413E0
1.021905383E1,-3.036956102E-1,-7.343559068E-1,-1.083914738E0,1.344016659E0
1.022908683E1,-2.204621033E-1,-6.581824744E-1,-1.384007294E0,1.548316472E0
1.023912083E1,-8.361269876E-2,-5.685814959E-1,-1.519300754E0,1.624361654E0
1.024915483E1,2.546520889E-2,-4.853990060E-1,-1.459672018E0,1.538474268E0
1.025918883E1,5.308175460E-2,-5.152730155E-1,-1.315549847E0,1.413858321E0
1.026922283E1,1.135046884E-2,-5.457229757E-1,-1.257260708E0,1.370637402E0
1.027925583E1,-3.893090799E-2,-4.696372515E-1,-1.178276519E0,1.269019432E0
1.028928983E1,-5.247861430E-2,-3.449155569E-1,-1.102370889E0,1.156262221E0
1.029932383E1,-5.069682151E-2,-2.211504668E-1,-9.493159264E-1,9.760524703E-1
1.030935783E1,6.914332509E-5,-9.363029480E-2,-8.120098543E-1,8.173901396E-1
1.031939083E1,5.118214041E-2,4.761270761E-2,-7.208295429E-1,7.242111649E-1
1.032942483E1,1.151438092E-1,1.547348678E-1,-6.430206442E-1,6.713244558E-1
1.033945883E1,1.484549582E-1,2.891050529E-1,-7.005046213E-1,7.722223324E-1
1.034949283E1,1.253910546E-1,4.375605959E-1,-8.919781297E-1,1.001402604E0
1.035952583E1,8.039044440E-2,6.249287742E-1,-1.031927143E0,1.209079082E0
1.036955983E1,8.071467251E-2,7.677277207E-1,-1.003083413E0,1.265739723E0
1.037959383E1,9.754822165E-2,8.814741915E-1,-7.992512298E-1,1.193865543E0
1.038962783E1,5.572425753E-2,9.802225542E-1,-5.054695737E-1,1.104282998E0
1.039966183E1,-1.143744618E-2,1.045829483E0,-2.491744173E-1,1.075164180E0
1.040969483E1,-3.747465894E-2,1.097703642E0,1.375042927E-1,1.106916919E0
1.041972883E1,1.826041594E-2,1.131040372E0,5.676494497E-1,1.265626985E0
1.042976283E1,1.895363259E-1,1.149473135E0,8.881827021E-1,1.464950859E0
1.043979683E1,3.498142080E-1,1.160837783E0,1.046339360E0,1.601480689E0
1.044982983E1,4.724776827E-1,1.143330635E0,1.015383616E0,1.600451183E0
1.045986383E1,4.931337029E-1,1.069729977E0,9.004548383E-1,1.482673932E0
1.046989783E1,4.584162985E-1,9.395715415E-1,7.196653622E-1,1.269195973E0
1.047993183E1,4.003837064E-1,8.285808635E-1,4.876460910E-1,1.041466308E0
1.048996583E1,4.440087591E-1,7.433769912E-1,3.384953141E-1,9.296946847E-1
1.049999883E1,5.591215780E-1,7.293144375E-1,2.806265903E-1,9.608682381E-1
1.051003283E1,6.590794373E-1,7.037650287E-1,3.282813978E-1,1.018547788E0
1.052006683E1,8.471750093E-1,7.589223987E-1,2.570365834E-1,1.166077403E0
1.053010083E1,6.699007331E-1,9.027294052E-1,-2.103477359E-2,1.124335285E0
1.054013383E1,3.349350907E-1,9.687894934E-1,-3.232703340E-1,1.074820127E0
1.055016783E1,6.115807503E-2,1.006207581E0,-2.434289432E-1,1.037039853E0
1.056020183E1,-6.921232224E-2,9.680083054E-1,2.520465696E-1,1.002675370E0
1.057023583E1,-7.392649367E-2,7.772154129E-1,8.767473024E-1,1.173973917E0
1.058026883E1,-1.735395133E-2,5.466181844E-1,1.429521435E0,1.530563339E0
1.059030283E1,5.117907062E-2,3.404032606E-1,1.796672199E0,1.829350887E0
1.060033683E1,1.708521330E-1,1.776050824E-1,2.076673722E0,2.091245506E0
1.061037083E1,3.289273690E-1,-1.689617282E-1,2.332286509E0,2.361419412E0
1.062040483E1,3.876005235E-1,-6.222653675E-1,2.324034333E0,2.436920995E0
1.063043783E1,2.305567364E-1,-1.009027108E0,1.952861270E0,2.210194392E0
1.064047183E1,-7.055688947E-2,-1.203642325E0,1.157375062E0,1.671301935E0
1.065050583E1,-3.088752200E-1,-1.190859727E0,1.573392177E-1,1.240284814E0
1.066053983E1,-5.458488370E-1,-1.064264585E0,-6.647769642E-1,1.368407275E0
1.067057283E1,-8.060694487E-1,-9.650765115E-1,-1.323653503E0,1.825699654E0
1.068060683E1,-1.054521881E0,-9.125907344E-1,-1.772321470E0,2.255207671E0
1.069064083E1,-1.087097889E0,-8.025508136E-1,-1.956254994E0,2.377562455E0
1.070067483E1,-9.822417440E-1,-6.207819289E-1,-1.963051797E0,2.281171060E0
1.071070883E1,-7.671068926E-1,-3.969850123E-1,-1.886084898E0,2.074455670E0
1.072074183E1,-5.484743831E-1,-1.488619244E-1,-1.756120005E0,1.845790208E0
1.073077583E1,-3.296426296E-1,-9.681234956E-3,-1.512440216E0,1.547977195E0
1.074080983E1,-6.688147590E-2,1.242433923E-1,-1.245731168E0,1.253696812E0
1.075084383E1,-1.817343861E-2,3.027454376E-1,-9.471004164E-1,9.944768839E-1
1.076087683E1,8.038503572E-2,2.120112687E-1,-4.195242745E-1,4.768764504E-1
1.077091083E1,1.007317382E-1,4.471482754E-2,3.955085903E-1,4.105768429E-1
1.078094483E1,1.239080545E-1,-2.672750580E-1,1.382761837E0,1.413796117E0
1.079097883E1,3.178400248E-2,-6.591612983E-1,2.181113765E0,2.278763062E0
1.080101183E1,-1.413812891E-1,-9.347721469E-1,2.409869120E0,2.588678584E0
1.081104583E1,-2.669590160E-1,-8.296035415E-1,2.014297965E0,2.194744961E0
1.082107983E1,-5.718530130E-1,-5.862254691E-1,1.236081508E0,1.482758802E0
1.083111383E1,-7.780873789E-1,-4.382798034E-1,3.808279860E-1,9.708445345E-1
1.084114783E1,-8.115606420E-1,-2.948288924E-1,-3.119723439E-1,9.180857774E-1
1.085118083E1,-8.260462417E-1,-2.174895251E-1,-8.138347703E-1,1.179822495E0
1.086121483E1,-7.001292300E-1,-1.577303964E-1,-1.058767033E0,1.279080703E0
1.087124883E1,-5.086570372E-1,-9.249768913E-2,-1.143946931E0,1.255349507E0
1.088128283E1,-4.508899087E-1,-4.811790705E-2,-1.207809051E0,1.290123927E0
1.089131583E1,-4.700217059E-1,-1.084833920E-2,-1.260814646E0,1.345619434E0
1.090134983E1,-4.959662403E-1,3.127851069E-2,-1.192475313E0,1.291881662E0
1.091138383E1,-4.361074166E-1,5.991407990E-2,-1.017865759E0,1.108977042E0
1.092141783E1,-3.426080994E-1,2.511028290E-2,-7.605379844E-1,8.345231344E-1
1.093145083E1,-2.439543155E-1,1.569392681E-3,-4.635064459E-1,5.237885035E-1
1.094148521E1,-1.231824151E-1,2.472612083E-2,-2.894605637E-1,3.155514322E-1
1.095151921E1,-8.412681520E-2,8.900046945E-2,-2.547859901E-1,2.826911837E-1
1.096155321E1,-8.435953438E-2,1.686892480E-1,-3.284562296E-1,3.787559744E-1
1.097158721E1,-1.428328604E-1,2.300791651E-1,-4.805183351E-1,5.515754877E-1
1.098162021E1,-2.018590406E-1,2.597537845E-1,-5.280029887E-1,6.220982695E-1
1.099165421E1,-1.990434600E-1,2.771299553E-1,-4.660745430E-1,5.776199362E-1
1.100168821E1,-2.747353743E-1,2.733526540E-1,-3.960354245E-1,5.541166455E-1
1.101172221E1,-2.912505426E-1,2.864849156E-1,-2.843769944E-1,4.977657685E-1
1.102175521E1,-2.554502338E-1,3.247718990E-1,-1.898707867E-1,4.547334647E-1
1.103178921E1,-2.886820069E-1,4.417945647E-1,-2.338155359E-1,5.772256434E-1
1.104182321E1,-2.322116446E-1,5.680336118E-1,-1.110310239E-1,6.236283511E-1
1.105185721E1,-1.205286562E-1,5.274100810E-1,8.445718288E-2,5.475596463E-1
1.106189121E1,1.177439198E-2,4.861398482E-1,1.854976541E-1,5.204613031E-1
1.107192421E1,1.220065400E-1,5.046427774E-1,1.809198689E-1,5.498017166E-1
1.108195821E1,1.936147588E-1,4.637087595E-1,1.641354364E-1,5.286330769E-1
1.109199221E1,1.306396616E-1,4.302352041E-1,-3.442255855E-2,4.509478513E-1
1.110202621E1,-3.599165887E-2,4.457683325E-1,-2.805996931E-1,5.279592726E-1
1.111205921E1,-3.416832161E-1,4.363513917E-1,-3.346788365E-1,6.474255793E-1
1.112209321E1,-5.515798393E-1,1.825325310E-1,-5.807396114E-2,5.838929944E-1
1.113212721E1,-5.524675928E-1,-3.656147003E-2,6.261888492E-1,8.358646165E-1
1.114216121E1,-4.198414859E-1,-1.803608751E-1,1.301194348E0,1.379095228E0
1.115219521E1,-3.413100176E-1,-2.533949375E-1,1.469831555E0,1.530067425E0
1.116222821E1,-3.100604506E-1,-7.085538983E-2,1.072347776E0,1.118520327E0
1.117226221E1,-3.270793565E-1,2.671148443E-1,3.581969225E-1,5.537474883E-1
1.118229621E1,-2.298989247E-1,5.147157758E-1,-2.164446276E-1,6.038494202E-1
1.119233021E1,3.139004633E-2,8.018994337E-1,-5.123137397E-1,9.520994720E-1
1.120236321E1,7.305204257E-2,1.285251914E0,-8.688757807E-1,1.553111138E0
1.121239721E1,5.462381154E-2,1.334049852E0,-9.182935238E-1,1.620473932E0
1.122243121E1,1.325256810E-1,1.238066053E0,-3.760168970E-1,1.300676484E0
1.123246521E1,2.324272607E-1,9.618441707E-1,6.691161829E-1,1.194522125E0
1.124249821E1,4.720373873E-1,4.559997904E-1,1.754302690E0,1.873054466E0
1.125253221E1,7.083847676E-1,6.567183316E-2,2.681720794E0,2.774481606E0
1.126256621E1,9.093485995E-1,-2.816644710E-1,3.144681695E0,3.285616032E0
1.127260021E1,9.389018892E-1,-4.896534401E-1,2.829447189E0,3.021103878E0
1.128263421E1,7.873831362E-1,-5.389752889E-1,1.789783595E0,2.028248476E0
1.129266721E1,5.793666852E-1,-4.809241319E-1,5.375304419E-1,9.251447197E-1
1.130270121E1,4.236601563E-1,-4.575855553E-1,-5.302489042E-1,8.185574927E-1
1.131273521E1,2.577492128E-1,-5.001328200E-1,-1.355596257E0,1.467722286E0
1.132276921E1,2.046303284E-1,-4.713551635E-1,-1.705224085E0,1.780965593E0
1.133280221E1,2.617764826E-1,-4.742963129E-1,-1.609909793E0,1.698615159E0
1.134283621E1,4.010505813E-1,-5.786813915E-1,-1.310537614E0,1.487690344E0
1.135287021E1,5.597918151E-1,-6.095932817E-1,-8.740260082E-1,1.203699426E0
1.136290421E1,5.586011758E-1,-5.938707036E-1,-5.688814580E-1,9.941548167E-1
1.137293821E1,4.725130583E-1,-6.436024421E-1,-4.802242202E-1,9.317231324E-1
1.138297121E1,3.774196440E-1,-6.670439297E-1,-4.610529542E-1,8.944065174E-1
1.139300521E1,2.287173486E-1,-7.197168177E-1,-4.327126694E-1,8.703701382E-1
1.140303921E1,5.096564725E-2,-8.883943713E-1,-3.904460710E-1,9.717459496E-1
1.141307321E1,-1.298099416E-1,-1.071634415E0,-3.203794706E-1,1.126007969E0
1.142310621E1,-2.665150662E-1,-1.212691476E0,-2.461484832E-1,1.265796181E0
1.143314021E1,-3.193430516E-1,-1.341757067E0,-2.166311538E-1,1.396145075E0
1.144317421E1,-3.991055050E-1,-1.437718647E0,-4.776438439E-1,1.566672829E0
1.145320821E1,-4.994421177E-1,-1.364619096E0,-9.293149406E-1,1.724892450E0
1.146324121E1,-4.556292231E-1,-1.074925228E0,-1.382798674E0,1.809749819E0
1.147327521E1,-2.091560733E-1,-6.700558305E-1,-1.697002316E0,1.836447096E0
1.148330921E1,1.264365368E-1,-3.606755573E-1,-1.609478853E0,1.654235543E0
1.149334321E1,3.425127898E-1,-4.179250610E-1,-1.291549950E0,1.400027729E0
1.150337721E1,4.528725533E-1,-6.040144533E-1,-1.168352040E0,1.391033249E0
1.151341021E1,5.043479316E-1,-6.027602255E-1,-1.156385128E0,1.398182138E0
1.152344421E1,4.652793217E-1,-4.784642082E-1,-1.104810932E0,1.290743988E0
1.153347821E1,4.514013939E-1,-4.940862143E-1,-1.061575450E0,1.254921050E0
1.154351221E1,5.140389606E-1,-4.666496167E-1,-1.034244980E0,1.245656693E0
1.155354521E1,4.995184238E-1,-3.345975602E-1,-8.638284642E-1,1.052460830E0
1.156357921E1,3.889727189E-1,-2.282258901E-1,-6.180857778E-1,7.651253895E-1
1.157361321E1,3.904865630E-1,-2.392999318E-1,-3.255121565E-1,5.618739870E-1
1.158364721E1,4.596572238E-1,-2.630197468E-1,-1.460470748E-1,5.493577147E-1
1.159368021E1,4.118192522E-1,-2.306747040E-1,-1.250965011E-1,4.883185949E-1
1.160371421E1,3.288288434E-1,-2.309913307E-1,-3.062525976E-1,5.052485098E-1
1.161374821E1,4.390120210E-1,2.740326852E-2,-4.866239977E-1,6.559614385E-1
1.162378221E1,4.299590693E-1,2.906089568E-1,-4.567037952E-1,6.913007476E-1
1.163381621E1,4.019726872E-1,4.647168195E-1,-2.947061008E-1,6.814656627E-1
1.164384921E1,3.654272971E-1,5.579287460E-1,5.500885069E-2,6.692141427E-1
1.165388321E1,3.950523613E-1,5.174850172E-1,3.743153572E-1,7.509787599E-1
1.166391721E1,3.696090795E-1,4.638540629E-1,4.369466382E-1,7.366775604E-1
1.167395121E1,2.302887878E-1,4.894177973E-1,1.675835395E-1,5.662569636E-1
1.168398421E1,1.312777390E-1,5.562973729E-1,-2.423828763E-1,6.208462535E-1
1.169401821E1,2.029553935E-2,6.247530654E-1,-6.350731087E-1,8.910926748E-1
1.170405221E1,-1.299542217E-1,6.898539180E-1,-8.816116011E-1,1.126954100E0
1.171408621E1,-2.601180661E-1,6.731718117E-1,-8.345649040E-1,1.103322380E0
1.172412021E1,-3.108676587E-1,4.958362859E-1,-7.985396236E-1,9.900292189E-1
1.173415321E1,-3.875679253E-1,3.977615225E-1,-8.340965420E-1,1.002067945E0
1.174418721E1,-4.020896316E-1,2.338377553E-1,-9.974098599E-1,1.100537412E0
1.175422121E1,-5.028855430E-1,-8.501266837E-3,-1.163004177E0,1.267100965E0
1.176425521E1,-5.237940167E-1,-2.659687901E-1,-1.375196124E0,1.495414307E0
1.177428821E1,-4.417903255E-1,-2.951501969E-1,-1.644928182E0,1.728606680E0
1.178432221E1,-8.641877756E-2,-8.104328603E-2,-1.934827287E0,1.938451147E0
1.179435621E1,4.464197123E-1,3.689882514E-1,-2.241856395E0,2.315461722E0
1.180439021E1,7.984027988E-1,7.747926190E-1,-2.077268969E0,2.356437353E0
1.181442421E1,1.183975216E0,8.134394985E-1,-1.547984270E0,2.111808805E0
1.182445721E1,1.509371012E0,7.436436242E-1,-7.371637398E-1,1.837013084E0
1.183449121E1,1.429029538E0,5.594984311E-1,6.818438172E-2,1.536168294E0
1.184452521E1,1.036551852E0,9.857440799E-2,4.163223392E-1,1.121374579E0
1.185455921E1,5.313114895E-1,-1.866606653E-1,4.388721263E-1,7.139627764E-1
1.186459221E1,1.908209592E-2,-1.869863552E-1,3.290830511E-1,3.789771470E-1
1.187462621E1,-3.742082070E-1,-2.505917823E-1,2.121539408E-1,4.978326206E-1
1.188466021E1,-7.544323218E-1,-1.652469921E-1,2.060436004E-1,7.993301332E-1
1.189469421E1,-8.487090263E-1,9.512981325E-2,8.965430510E-1,1.238202784E0
1.190472821E1,-1.798945597E-1,3.258393082E-1,2.231269426E0,2.262100033E0
1.191476121E1,4.370746922E-1,3.502669287E-1,3.581989691E0,3.625516701E0
1.192479521E1,7.304640001E-1,5.323655963E-2,4.488663043E0,4.548022394E0
1.193482921E1,6.838654920E-1,-2.495346057E-1,4.467264572E0,4.526189599E0
1.194486338E1,2.218252355E-1,-3.934749287E-1,3.594099859E0,3.622372531E0
1.195489638E1,-2.868144062E-1,-3.363602033E-1,2.314630841E0,2.356462735E0
1.196493038E1,-6.105408230E-1,-1.373537269E-1,1.219680068E0,1.370855796E0
1.197496438E1,-7.575754926E-1,-3.140042514E-2,3.650972217E-1,8.415477378E-1
1.198499838E1,-7.998926693E-1,3.338935554E-2,-2.504648978E-1,8.388538588E-1
1.199503138E1,-7.540905520E-1,-1.088079125E-2,-7.380080777E-1,1.055190445E0
1.200506538E1,-4.807864299E-1,-1.771063149E-2,-7.556462038E-1,8.958071461E-1
1.201509938E1,-1.456208128E-1,-9.426267117E-2,-2.458572918E-1,3.008931376E-1
1.202513338E1,2.181113765E-1,-2.752205470E-1,1.519556862E-1,3.826348816E-1
1.203516737E1,7.131030321E-1,-2.342929611E-1,3.309155685E-1,8.203135007E-1
1.204520038E1,1.261951929E0,-2.295324504E-2,3.648183095E-1,1.313827204E0
1.205523438E1,1.418693854E0,6.334610313E-2,2.355188298E-1,1.439504810E0
1.206526838E1,1.569004426E0,2.135356379E-1,9.715382695E-2,1.586446099E0
1.207530238E1,1.508781028E0,3.342677772E-1,2.281799895E-1,1.562120753E0
1.208533538E1,1.253084334E0,2.174219897E-1,8.521843189E-1,1.530918281E0
1.209536938E1,9.671104655E-1,-9.275087357E-2,1.417367998E0,1.718382210E0
1.210540337E1,5.876486814E-1,-3.253031185E-1,1.542651610E0,1.682535908E0
1.211543738E1,1.270009392E-1,-4.330909842E-1,1.299509180E0,1.375652990E0
1.212547138E1,-2.671203992E-1,-6.022430393E-1,8.575468004E-1,1.081404874E0
1.213550438E1,-3.547113973E-1,-6.785547584E-1,3.908699942E-1,8.596720816E-1
1.214553838E1,-3.506396887E-1,-7.780419168E-1,9.719300330E-2,8.589201915E-1
1.215557237E1,-8.174349010E-1,-7.002435431E-1,-3.960260689E-1,1.146899073E0
1.216560638E1,-1.159936435E0,-4.584111822E-1,-1.061814601E0,1.637999876E0
1.217563937E1,-1.126463757E0,-4.657453448E-1,-1.790353113E0,2.165918648E0
1.218567338E1,-1.051561509E0,-3.838597673E-1,-2.434347319E0,2.679398589E0
1.219570738E1,-1.056530180E0,-2.204602030E-1,-2.885516140E0,3.080756744E0
1.220574138E1,-9.892676121E-1,-2.366982132E-2,-2.942557483E0,3.104489525E0
1.221577438E1,-9.872859907E-1,-5.624962986E-2,-2.441053491E0,2.633750139E0
1.222580837E1,-9.586638701E-1,-4.190044570E-1,-2.122949756E0,2.366752378E0
1.223584238E1,-9.983407366E-1,-4.069091991E-1,-2.091976470E0,2.353428324E0
1.224587638E1,-1.145377745E0,-5.702116996E-2,-1.755099081E0,2.096548205E0
1.225591038E1,-1.276706793E0,5.387069017E-2,-1.059323688E0,1.659834017E0
1.226594338E1,-1.198553786E0,-7.240197837E-2,-4.160750020E-1,1.270783865E0
1.227597738E1,-1.020404913E0,-8.767929107E-2,6.105370224E-2,1.025983137E0
1.228601138E1,-8.353557399E-1,-3.228276998E-2,3.399734902E-1,9.024651591E-1
1.229604537E1,-7.890954933E-1,8.592191041E-3,4.002910280E-1,8.848606841E-1
1.230607838E1,-7.129194295E-1,9.692958623E-2,1.425574565E-1,7.334658043E-1
1.231611238E1,-2.199418473E-1,2.443585043E-1,-1.912577462E-1,3.803485511E-1
1.232614638E1,2.037023753E-1,3.389078352E-1,-3.585401541E-1,5.337641994E-1
1.233618038E1,4.299481058E-1,3.411060959E-1,-5.500364667E-1,7.770127779E-1
1.234621338E1,3.034830639E-1,2.881007937E-1,-8.577789348E-1,9.544049132E-1
1.235624738E1,-1.452302188E-2,2.117810346E-1,-1.279426918E0,1.296917639E0
1.236628137E1,-2.745840776E-1,2.616662626E-1,-1.611479770E0,1.655515840E0
1.237631538E1,-4.468424660E-1,3.591007559E-1,-1.542525310E0,1.645601979E0
1.238634938E1,-5.009713107E-1,3.246691342E-1,-1.166062270E0,1.309993710E0
1.239638238E1,-5.556810763E-1,2.185904096E-1,-6.925114775E-1,9.144043811E-1
1.240641638E1,-8.071823931E-1,1.389441696E-1,-1.229143202E-1,8.282251071E-1
1.241645037E1,-4.293388259E-1,4.331938952E-2,5.747696042E-1,7.187269961E-1
1.242648438E1,8.298900551E-1,2.666644625E-1,1.474763682E0,1.713112768E0
1.243651737E1,1.435671537E0,5.792099798E-1,2.053794737E0,2.571907810E0
1.244655138E1,1.738886506E0,6.893807320E-1,2.546811495E0,3.159940010E0
1.245658538E1,2.011860260E0,7.199109453E-1,2.812129490E0,3.531844525E0
1.246661938E1,2.226751868E0,6.856095703E-1,2.538215504E0,3.445434995E0
1.247665338E1,2.252059202E0,7.457695256E-1,1.854581854E0,3.011215151E0
1.248668637E1,2.135985539E0,8.623289457E-1,1.165237228E0,2.581438210E0
1.249672038E1,1.942561399E0,8.129369304E-1,5.966393602E-1,2.188695906E0
1.250675438E1,1.689505600E0,6.302956411E-1,1.049943584E-1,1.806301632E0
1.251678838E1,1.450322905E0,4.603881258E-1,-4.229524970E-2,1.522229498E0
1.252682138E1,9.407906860E-1,1.346434694E-1,5.904986143E-2,9.522094648E-1
1.253685538E1,5.184644258E-1,-1.728812630E-1,3.288555944E-1,6.378395518E-1
1.254688938E1,5.521391255E-1,-2.300027128E-1,8.176629424E-1,1.013080228E0
1.255692337E1,1.116715279E0,8.411248952E-2,1.466679322E0,1.845339036E0
1.256695738E1,1.709836954E0,7.938455520E-1,2.259431956E0,2.942578110E0
1.257699038E1,2.133574147E0,1.311742725E0,2.786756667E0,3.746841382E0
1.258702438E1,2.399942302E0,1.532392378E0,2.626748196E0,3.873984452E0
1.259705838E1,2.414456846E0,1.699842893E0,2.033352871E0,3.585190597E0
1.260709237E1,2.132042177E0,1.564884478E0,9.963409889E-1,2.826156867E0
1.261712538E1,1.592754062E0,1.273199780E0,-7.946716905E-2,2.040641617E0
1.262715937E1,1.265032243E0,9.381845820E-1,-9.785525894E-1,1.854201190E0
1.263719338E1,1.228794708E0,5.851000994E-1,-1.653468626E0,2.141550153E0
1.264722738E1,1.021282287E0,7.905157819E-2,-2.136980735E0,2.369800271E0
1.265726038E1,7.810108405E-1,-3.678998653E-1,-2.406815704E0,2.556968924E0
1.266729438E1,7.883075809E-1,-7.870230938E-1,-2.286887557E0,2.543754880E0
1.267732837E1,1.073097389E0,-1.001470459E0,-1.863705264E0,2.372314987E0
1.268736238E1,1.000595423E0,-9.916581000E-1,-1.385472021E0,1.975882008E0
1.269739638E1,7.602245736E-1,-1.182170619E0,-5.969258738E-1,1.527019736E0
1.270742938E1,4.873227400E-1,-1.469874386E0,2.696998984E-1,1.571862653E0
1.271746338E1,1.641933239E-1,-1.709251648E0,1.078952790E0,2.027964439E0
1.272749738E1,-1.343128824E-1,-1.846746000E0,1.836298780E0,2.607777588E0
1.273753138E1,-5.123447299E-1,-1.975763936E0,2.376242368E0,3.132517844E0
1.274756437E1,-8.702136236E-1,-2.034020331E0,2.677052962E0,3.472912757E0
1.275759838E1,-1.114762893E0,-2.025049679E0,2.697976638E0,3.552829921E0
1.276763238E1,-1.542158689E0,-2.030584214E0,2.305495736E0,3.437562547E0
1.277766638E1,-1.764473922E0,-1.933006172E0,1.650065546E0,3.093961439E0
1.278770038E1,-1.637575893E0,-1.655377595E0,9.226163703E-1,2.504625872E0
1.279773338E1,-1.795986321E0,-1.434719172E0,-2.547164083E-2,2.298833350E0
1.280776738E1,-2.016802327E0,-1.361515248E0,-8.785634476E-1,2.587100525E0
1.281780138E1,-2.184670626E0,-1.291187861E0,-1.557065581E0,2.977315076E0
1.282783538E1,-2.206386600E0,-1.178514062E0,-1.938764217E0,3.164781812E0
1.283786838E1,-2.081636839E0,-1.043068720E0,-2.103870292E0,3.138068592E0
1.284790238E1,-1.783326514E0,-9.058233131E-1,-2.042193861E0,2.858552973E0
1.285793638E1,-1.336488726E0,-7.457386816E-1,-1.811786667E0,2.371686999E0
1.286797037E1,-8.822699976E-1,-5.814788456E-1,-1.544289415E0,1.871188872E0
1.287800338E1,-7.156570959E-1,-4.582685101E-1,-1.298021649E0,1.551462312E0
1.288803737E1,-6.779782230E-1,-3.475106974E-1,-1.146304529E0,1.376383750E0
1.289807138E1,-6.529866385E-1,-2.623212238E-1,-1.015295323E0,1.235325288E0
1.290810538E1,-6.161176050E-1,-2.353625630E-1,-8.882212937E-1,1.106315283E0
1.291813938E1,-6.264654225E-1,-2.243125679E-1,-7.785357141E-1,1.024154730E0
1.292817238E1,-6.578988844E-1,-1.535409395E-1,-7.641457164E-1,1.019962959E0
1.293820637E1,-7.345769316E-1,-6.251068220E-2,-8.220179486E-1,1.104184931E0
1.294824025E1,-7.667927510E-1,5.305127598E-2,-9.527827406E-1,1.224165231E0
1.295827425E1,-7.261955327E-1,2.820607661E-1,-1.063819027E0,1.318570874E0
1.296830725E1,-6.797218627E-1,4.943510201E-1,-1.218880169E0,1.480565300E0
1.297834125E1,-4.157417107E-1,7.088806115E-1,-1.305443519E0,1.542574366E0
1.298837525E1,-1.500635272E-1,9.265375131E-1,-1.354537911E0,1.647957457E0
1.299840925E1,2.970385551E-2,1.053225480E0,-1.311667880E0,1.682450255E0
1.300844325E1,1.469364363E-1,1.131694456E0,-1.201568318E0,1.657132789E0
1.301847625E1,2.054705733E-1,1.167337987E0,-1.054241872E0,1.586291921E0
1.302851025E1,1.687278396E-1,1.118161149E0,-8.637612212E-1,1.422967633E0
1.303854425E1,1.738084853E-1,1.076006086E0,-5.692217660E-1,1.229638933E0
1.304857825E1,2.571242917E-1,1.044666472E0,-1.551605451E-1,1.086975498E0
1.305861125E1,2.729661530E-1,9.851481025E-1,1.228429842E-1,1.029620174E0
1.306864525E1,3.084897423E-1,9.156036584E-1,4.212158740E-1,1.054001325E0
1.307867925E1,4.988511103E-1,8.322933338E-1,7.593685412E-1,1.232154700E0
1.308871325E1,5.976199383E-1,7.352142050E-1,9.945499867E-1,1.373615373E0
1.309874625E1,6.549846321E-1,5.826512124E-1,1.072409756E0,1.385117319E0
1.310878025E1,8.035044944E-1,4.142986909E-1,1.082603207E0,1.410422838E0
1.311881425E1,8.557365024E-1,2.351624420E-1,8.784160978E-1,1.248679773E0
1.312884825E1,8.960051072E-1,-6.104858592E-4,4.339633888E-1,9.955650394E-1
1.313888225E1,8.914208901E-1,-1.589390890E-1,-6.192376792E-2,9.075942873E-1
1.314891525E1,7.048344845E-1,-1.918364013E-1,-4.988446784E-1,8.845557464E-1
1.315894925E1,5.376257515E-1,-3.419086628E-1,-9.745712203E-1,1.164359071E0
1.316898325E1,4.431879562E-1,-6.024163362E-1,-1.277087447E0,1.479957214E0
1.317901725E1,3.030231804E-1,-7.540141728E-1,-1.342042996E0,1.568897646E0
1.318905025E1,1.505470920E-1,-7.590568116E-1,-9.918491578E-1,1.258012886E0
1.319908425E1,4.029988736E-1,-6.991253362E-1,9.632820010E-2,8.126890241E-1
1.320911825E1,6.173309022E-1,-6.536055663E-1,1.392953534E0,1.657895421E0
1.321915225E1,5.742790228E-1,-5.192754346E-1,2.445433640E0,2.565070966E0
1.322918625E1,5.357259911E-1,-3.451499206E-1,3.340101489E0,3.400354211E0
1.323921925E1,5.191310084E-1,-2.572201860E-1,3.814955041E0,3.858696826E0
1.324925325E1,5.073851216E-1,-1.798134296E-1,3.822604954E0,3.860321381E0
1.325928725E1,1.791165876E-1,-2.199645784E-2,3.192273937E0,3.197370714E0
1.326932125E1,-4.970297027E-1,1.858598891E-1,2.140514792E0,2.205308595E0
1.327935425E1,-9.107131934E-1,2.864490283E-1,1.164266590E0,1.505645463E0
1.328938825E1,-1.064203774E0,2.969059695E-1,4.533200115E-1,1.194228563E0
1.329942225E1,-8.991614342E-1,2.919068194E-1,1.266653091E-1,9.538055234E-1
1.330945625E1,-5.517105246E-1,2.802426840E-1,2.190133095E-2,6.191931307E-1
1.331949025E1,-1.137564111E-1,2.156604429E-1,-7.852576733E-2,2.561566783E-1
1.332952325E1,3.811554301E-1,1.986726004E-1,-1.634524816E-1,4.598553879E-1
1.333955725E1,7.848793584E-1,2.183868534E-1,-2.675668341E-1,8.575082715E-1
1.334959125E1,1.094366636E0,2.384645474E-1,-4.187945420E-1,1.195781143E0
1.335962525E1,1.239391617E0,1.897927263E-1,-6.641606677E-1,1.418880634E0
1.336965825E1,1.302045702E0,7.033538964E-2,-7.780790466E-1,1.518445613E0
1.337969225E1,1.315697197E0,2.486554038E-2,-7.765926844E-1,1.527996599E0
1.338972625E1,1.154971856E0,1.220984509E-1,-4.226344085E-1,1.235915800E0
1.339976025E1,7.548515671E-1,1.589875478E-1,1.279499424E-1,7.819521191E-1
1.340979325E1,3.225166279E-1,7.394030772E-2,6.240405822E-1,7.063361753E-1
1.341982725E1,-9.508449733E-2,-9.479308672E-2,1.081834883E0,1.090134627E0
1.342986125E1,-5.427794874E-1,-2.807775215E-1,1.499621365E0,1.619354756E0
1.343989525E1,-9.610530424E-1,-5.189128342E-1,1.744417387E0,2.058126697E0
1.344992925E1,-1.278059254E0,-6.969093876E-1,1.806139426E0,2.319753819E0
1.345996225E1,-1.505218905E0,-7.494516635E-1,1.563413903E0,2.296001912E0
1.346999625E1,-1.648264604E0,-6.744718670E-1,1.091479865E0,2.088783569E0
1.348003025E1,-1.560734709E0,-5.020782617E-1,5.668945742E-1,1.734746342E0
1.349006425E1,-1.315216556E0,-2.976050042E-1,1.500933480E-1,1.356794509E0
1.350009725E1,-1.016139661E0,-1.248014725E-1,-1.888744211E-1,1.041051759E0
1.351013125E1,-8.483959079E-1,-4.077672780E-2,-5.088749921E-1,9.901475222E-1
1.352016525E1,-8.194802570E-1,-1.800595243E-2,-7.170990193E-1,1.089083610E0
1.353019925E1,-6.739904219E-1,-3.591319654E-2,-8.179634893E-1,1.060479663E0
1.354023225E1,-5.791860062E-1,8.206932619E-4,-9.205721837E-1,1.087616775E0
1.355026625E1,-5.456656730E-1,4.983282231E-2,-9.600098991E-1,1.105374752E0
1.356030025E1,-4.765048063E-1,9.307568640E-2,-9.450515521E-1,1.062469929E0
1.357033425E1,-4.240342319E-1,1.796671030E-1,-8.569714344E-1,9.728747797E-1
1.358036825E1,-4.623814416E-1,2.186268085E-1,-7.592018956E-1,9.154134570E-1
1.359040125E1,-4.057763010E-1,2.490615660E-1,-5.775137025E-1,7.484705383E-1
1.360043525E1,-3.180364913E-1,3.344864631E-1,-3.580776393E-1,5.841643601E-1
1.361046925E1,-3.148906893E-1,3.690447501E-1,-2.143127328E-1,5.303584837E-1
1.362050325E1,-4.297130477E-1,3.324483430E-1,-2.586580163E-1,6.017301501E-1
1.363053625E1,-5.430636621E-1,2.966490575E-1,-3.748825371E-1,7.235023987E-1
1.364057025E1,-6.605909425E-1,1.878610256E-1,-3.852566671E-1,7.874610199E-1
1.365060425E1,-7.099326718E-1,4.711284377E-2,-2.972806299E-1,7.711029707E-1
1.366063825E1,-6.389492279E-1,-7.873056605E-3,-1.790195239E-1,6.636008520E-1
1.367067225E1,-6.579906857E-1,-2.365096405E-2,-9.777714014E-2,6.656361466E-1
1.368070525E1,-7.658759075E-1,-7.199545071E-2,-8.324096203E-2,7.737430507E-1
1.369073925E1,-8.390210670E-1,-1.051623197E-1,-3.340046525E-2,8.462452691E-1
1.370077325E1,-9.070727170E-1,-7.956642553E-2,6.047190428E-2,9.125615492E-1
1.371080725E1,-8.735909754E-1,-8.411029682E-2,1.627999324E-1,8.926026845E-1
1.372084025E1,-5.467181718E-1,-9.460685290E-2,2.854388487E-1,6.239603773E-1
1.373087425E1,1.078173941E-1,-8.604038961E-2,3.405535340E-1,3.674292431E-1
1.374090825E1,5.838053066E-1,-1.194225823E-1,1.617240447E-1,6.174504480E-1
1.375094225E1,7.725657070E-1,-2.525325463E-1,-5.425280571E-2,8.146004085E-1
1.376097625E1,8.721332645E-1,-3.885585898E-1,-4.536854625E-2,9.558517217E-1
1.377100925E1,9.669780260E-1,-4.615976954E-1,7.154536128E-2,1.073889042E0
1.378104325E1,1.107593622E0,-5.367305428E-1,1.648698467E-1,1.241783143E0
1.379107725E1,1.361579129E0,-5.806492719E-1,2.575277495E-1,1.502455271E0
1.380111125E1,1.729101191E0,-7.135589688E-1,2.841372585E-1,1.892007217E0
1.381114425E1,2.209445279E0,-8.237645119E-1,1.750130117E-1,2.364501208E0
1.382117825E1,2.713604491E0,-9.483616608E-1,-5.021939635E-2,2.874988898E0
1.383121225E1,2.986209286E0,-1.149114116E0,-2.776146895E-1,3.211694112E0
1.384124625E1,3.060296432E0,-1.282220133E0,-2.970175052E-1,3.331324380E0
1.385127925E1,3.175618728E0,-1.109232304E0,1.459406555E-2,3.363801956E0
1.386131325E1,2.838054290E0,-8.341729943E-1,3.897689635E-1,2.983675013E0
1.387134725E1,2.387576610E0,-5.266750860E-1,8.319897902E-1,2.582656719E0
1.388138125E1,1.955938659E0,-3.102196410E-2,1.211208622E0,2.300800888E0
1.389141525E1,1.462876292E0,4.651353340E-1,1.390564946E0,2.071238469E0
1.390144825E1,9.784175187E-1,8.761891857E-1,1.549875845E0,2.031532295E0
1.391148225E1,5.614560789E-1,1.276721119E0,1.673283085E0,2.178331019E0
1.392151625E1,1.906888121E-1,1.532301015E0,1.789197704E0,2.363374081E0
1.393155025E1,-9.072364390E-2,1.381887239E0,1.560631798E0,2.086483820E0
1.394158325E1,-2.523640734E-1,1.042178920E0,1.060620600E0,1.508224315E0
1.395161771E1,-3.241918552E-1,6.552316770E-1,4.167556179E-1,8.414951898E-1
1.396165171E1,-2.451719981E-1,1.624328734E-1,-2.559016389E-1,3.898453486E-1
1.397168571E1,-2.899400353E-2,-4.182729703E-1,-8.537028408E-1,9.511053939E-1
1.398171971E1,2.149424779E-1,-9.018054720E-1,-1.378595111E0,1.661318108E0
1.399175271E1,2.674200690E-1,-1.258464065E0,-1.856419049E0,2.258658226E0
1.400178671E1,3.951068866E-1,-1.482517382E0,-1.909881311E0,2.449819149E0
1.401182071E1,5.627149844E-1,-1.437151321E0,-1.562279543E0,2.196080473E0
1.402185471E1,9.306434280E-1,-1.315264503E0,-1.087275133E0,1.943755416E0
1.403188771E1,1.159481229E0,-1.113765797E0,-6.909800917E-1,1.749949844E0
1.404192171E1,1.098646798E0,-1.022154546E0,-3.830031502E-1,1.548714342E0
1.405195571E1,8.639120793E-1,-1.058662806E0,-1.293129283E-1,1.372527905E0
1.406198971E1,4.901294035E-1,-1.132501226E0,3.464533746E-2,1.234498343E0
1.407202371E1,3.004299402E-3,-1.189022240E0,2.077884096E-1,1.207045540E0
1.408205671E1,-4.297311741E-1,-1.246143836E0,3.252525401E-1,1.357693837E0
1.409209071E1,-7.541633499E-1,-1.255499088E0,3.687534857E-1,1.510304424E0
1.410212471E1,-1.046199027E0,-1.242868079E0,3.009643757E-1,1.652220634E0
1.411215871E1,-1.249776272E0,-1.230983467E0,1.084050393E-1,1.757558727E0
1.412219171E1,-1.138316063E0,-1.070526368E0,-1.030256009E-1,1.566015465E0
1.413222571E1,-9.685041493E-1,-7.369069739E-1,-2.753909934E-1,1.247746919E0
1.414225971E1,-4.293534440E-1,-4.425737062E-1,-2.734602427E-1,6.745341872E-1
1.415229371E1,5.628237426E-2,-2.278589408E-1,-3.796860248E-1,4.463730278E-1
1.416232671E1,-4.047150314E-2,-1.096902208E-1,-9.602472961E-1,9.673390082E-1
1.417236071E1,-3.413990414E-1,-1.135121345E-1,-1.759976243E0,1.796372647E0
1.418239471E1,-6.124759591E-1,-1.437971576E-1,-2.510389774E0,2.588022651E0
1.419242871E1,-8.692254442E-1,-2.163285239E-1,-3.003306545E0,3.134039104E0
1.420246271E1,-1.052521622E0,-3.338081130E-1,-3.212524014E0,3.396989868E0
1.421249571E1,-1.126875985E0,-4.814536338E-1,-3.076799614E0,3.311848872E0
1.422252971E1,-8.995549518E-1,-5.759398513E-1,-2.495915576E0,2.714866551E0
1.423256371E1,-7.404931444E-1,-5.111030006E-1,-1.677234634E0,1.903331918E0
1.424259771E1,-2.686292732E-1,-4.351024995E-1,-4.466933620E-1,6.789777840E-1
1.425263071E1,3.198959059E-1,-2.777353248E-1,9.469466347E-1,1.037390105E0
1.426266471E1,5.402909124E-1,-1.627348821E-1,1.804284105E0,1.890459744E0
1.427269871E1,5.317627484E-1,-1.314366736E-1,1.843232408E0,1.922902215E0
1.428273271E1,1.594360292E-1,-7.046179913E-2,1.358181896E0,1.369322013E0
1.429276671E1,-2.458654779E-1,3.468239419E-2,5.433659631E-1,5.974104716E-1
1.430279971E1,-6.043208474E-1,1.220381150E-1,-2.907750177E-1,6.816502762E-1
1.431283371E1,-6.723947167E-1,1.915000402E-1,-8.622953242E-1,1.110108169E0
1.432286771E1,-5.409498936E-1,2.880227333E-1,-1.219623935E0,1.364941913E0
1.433290171E1,-2.272362489E-1,4.142115674E-1,-1.195925170E0,1.285863347E0
1.434293471E1,3.538635510E-1,6.367988413E-1,-5.818494129E-1,9.323523563E-1
1.435296871E1,1.000640447E0,7.095984303E-1,-1.316208243E-3,1.226708184E0
1.436300271E1,1.550254160E0,6.534109271E-1,1.257420337E-1,1.687022483E0
1.437303671E1,2.049643214E0,5.056489371E-1,-5.816751659E-2,2.111895265E0
1.438307071E1,2.230231546E0,2.193321289E-1,-6.812053013E-1,2.342238244E0
1.439310371E1,1.891187178E0,1.999005157E-1,-1.760314212E0,2.591380961E0
1.440313771E1,9.381015515E-1,5.133605374E-1,-2.370371178E0,2.600429404E0
1.441317171E1,2.483593154E-1,7.670371646E-1,-2.357624833E0,2.491670768E0
1.442320571E1,1.447384679E-1,7.964203003E-1,-2.554852002E0,2.680019267E0
1.443323871E1,3.269798076E-1,7.164909089E-1,-2.487161125E0,2.608878203E0
1.444327271E1,5.396494728E-1,4.681972285E-1,-2.258398168E0,2.368711144E0
1.445330671E1,2.313462567E-1,1.152663083E-1,-2.069766991E0,2.085843429E0
1.446334071E1,-5.730973005E-2,-1.958754386E-1,-1.901788180E0,1.912707472E0
1.447337471E1,3.102883458E-1,-1.899742824E-1,-1.513299172E0,1.556420081E0
1.448340771E1,7.254886043E-1,-1.676936133E-1,-8.674812198E-1,1.143231617E0
1.449344171E1,1.233087149E0,-1.593190849E-1,2.730181932E-2,1.243636554E0
1.450347571E1,2.525787247E0,-3.754446007E-1,8.256531626E-1,2.683703227E0
1.451350971E1,3.053567164E0,-1.431004874E0,9.318432766E-1,3.498625340E0
1.452354271E1,2.444090534E0,-2.328387585E0,6.232143706E-1,3.432690408E0
1.453357671E1,1.612312413E0,-2.502467381E0,2.357234824E-1,2.986211626E0
1.454361071E1,1.435651072E0,-2.472357437E0,-4.395597589E-1,2.892552173E0
1.455364471E1,2.000803176E-1,-1.501180525E0,-4.815047604E-1,1.589157619E0
1.456367771E1,-8.138944119E-1,-1.016127236E0,1.034372449E-2,1.301939194E0
1.457371171E1,-1.012063567E0,-8.233283097E-1,5.595323449E-1,1.419583958E0
1.458374571E1,-4.020785218E-1,-8.660811040E-1,1.218693058E0,1.548217164E0
1.459377971E1,4.928129831E-1,-1.144008619E0,2.053947934E0,2.402149553E0
1.460381371E1,6.457524633E-1,-1.229612149E0,3.153426790E0,3.445728196E0
1.461384671E1,5.672255266E-1,-1.109955313E0,3.959894654E0,4.151446888E0
1.462388071E1,2.432403705E-1,-8.157523647E-1,4.568002158E0,4.646639809E0
1.463391471E1,-2.592500469E-1,-6.236686993E-1,4.141707392E0,4.196416728E0
1.464394871E1,-7.806828117E-1,-7.204047427E-1,2.023225493E0,2.285145519E0
1.465398171E1,-1.597810442E0,-6.536929822E-1,-7.473764867E-1,1.881192264E0
1.466401571E1,-2.114955443E0,-5.056376812E-1,-2.879299965E0,3.608195432E0
1.467404971E1,-1.962632844E0,-3.261869252E-1,-3.810218797E0,4.298382588E0
1.468408371E1,-1.311016793E0,-1.084488934E-1,-3.672457227E0,3.900957354E0
1.469411671E1,-5.792421395E-1,-1.743551999E-2,-2.942256936E0,2.998783308E0
1.470415071E1,1.125898916E-1,-1.952440855E-1,-2.254063627E0,2.265303417E0
1.471418471E1,6.734659266E-1,-4.112995809E-1,-1.702930807E0,1.876884928E0
1.472421871E1,1.502696123E0,-4.251525119E-1,-9.740566653E-1,1.840553364E0
1.473425271E1,2.248301781E0,-3.793767071E-1,-5.958897471E-2,2.280863527E0
1.474428571E1,2.239077798E0,-3.952442962E-1,4.636689985E-1,2.320490547E0
1.475431971E1,2.131643397E0,-3.898338675E-1,5.719032991E-1,2.241193298E0
1.476435371E1,2.213275790E0,-2.343610811E-1,6.528778803E-1,2.319431905E0
1.477438771E1,1.893296561E0,-1.283893606E-1,7.087287301E-1,2.025673248E0
1.478442171E1,1.558649007E0,-5.332953036E-3,6.182845831E-1,1.676809767E0
1.479445471E1,1.156824254E0,2.167858127E-1,3.978971779E-1,1.242401146E0
1.480448871E1,7.053063548E-1,2.777076602E-1,1.275920928E-1,7.686731039E-1
1.481452271E1,3.950764811E-1,6.462985933E-2,7.877836704E-2,4.080054850E-1
1.482455671E1,2.431953469E-1,-1.594348598E-1,3.178482109E-1,4.308026653E-1
1.483458971E1,3.813852257E-1,-3.457268581E-1,7.683422631E-1,9.248413832E-1
1.484462371E1,9.747331882E-1,-5.077403399E-1,1.460186573E0,1.827580332E0
1.485465771E1,1.463641693E0,-6.941019201E-1,1.818834316E0,2.435607265E0
1.486469171E1,1.490255003E0,-8.142771122E-1,1.773217848E0,2.455241073E0
1.487472571E1,1.285509776E0,-8.822176650E-1,1.441964310E0,2.123700654E0
1.488475871E1,9.164466807E-1,-8.409456781E-1,7.398879576E-1,1.447238177E0
1.489479271E1,6.989676806E-1,-9.274429545E-1,-1.124472195E-1,1.166769313E0
1.490482671E1,3.268941459E-1,-6.783597538E-1,-3.376626706E-1,8.252562131E-1
1.491486071E1,2.073902142E-1,-4.644691899E-1,-6.464050126E-1,8.225459073E-1
1.492489371E1,1.864682919E-1,-3.028512722E-1,-9.891348803E-1,1.051131356E0
1.493492771E1,3.120191216E-1,-6.301719725E-2,-1.014251595E0,1.063030290E0
1.494496083E1,4.158118773E-1,7.549720198E-2,-9.209762263E-1,1.013309703E0
1.495499483E1,6.129083607E-1,2.017140296E-1,-5.643679923E-1,8.572376794E-1
1.496502783E1,8.020096537E-1,2.306010291E-1,-1.889323086E-1,8.556235951E-1
1.497506183E1,9.517094842E-1,1.615439504E-1,1.305490297E-1,9.741100756E-1
1.498509583E1,1.080320600E0,9.633083135E-2,4.495584977E-1,1.174084780E0
1.499512983E1,1.019977773E0,-4.522295058E-2,5.783416682E-1,1.173404815E0
1.500516383E1,9.751321144E-1,-1.915632632E-1,3.563655746E-1,1.055734601E0
1.501519683E1,9.598211803E-1,-2.763706943E-1,-5.815640688E-2,1.000509683E0
1.502523083E1,6.974241619E-1,-3.326463443E-1,-4.057090580E-1,8.727278452E-1
1.503526483E1,-5.696021274E-2,-4.259591353E-1,-6.155650431E-1,7.507369533E-1
1.504529883E1,-7.248400019E-1,-5.175583997E-1,-5.517111093E-1,1.047685484E0
1.505533183E1,-1.353290700E0,-6.145710164E-1,-5.172745174E-1,1.573742730E0
1.506536583E1,-2.762310044E0,-6.180340299E-1,-6.808965683E-1,2.911347278E0
1.507539983E1,-2.134539669E0,-6.816567063E-1,3.776365757E-2,2.241058133E0
1.508543383E1,-6.849497851E-1,-8.404875487E-1,1.879026139E-1,1.100401254E0
1.509546783E1,-4.053121783E-1,-6.580330780E-1,1.284007627E-1,7.834361809E-1
1.510550083E1,-5.538428579E-1,-5.437919328E-1,-1.330481297E-1,7.874981792E-1
1.511553483E1,-5.176479352E-1,-5.161226159E-1,-4.384370935E-1,8.523901832E-1
1.512556883E1,-5.585742787E-1,-4.900408182E-1,-6.821788627E-1,1.008718607E0
1.513560283E1,-4.564476141E-1,-4.011824360E-1,-6.525118446E-1,8.916633214E-1
1.514563583E1,-3.059066617E-1,-3.642233554E-1,-6.166748446E-1,7.787974077E-1
1.515566983E1,-3.466855822E-1,-3.121141389E-1,-5.759109807E-1,7.411339867E-1
1.516570383E1,-5.435681306E-1,-4.613365442E-2,-4.651863509E-1,7.169330288E-1
1.517573783E1,-8.451063374E-1,1.715076059E-1,-5.728879702E-1,1.035287500E0
1.518577183E1,-1.238261058E0,1.513955230E-1,-5.471298158E-1,1.362190180E0
1.519580483E1,-1.366364782E0,1.268164596E-1,-3.103661138E-1,1.406898098E0
1.520583883E1,-1.551418925E0,1.394856218E-1,-1.231832922E-2,1.557725477E0
1.521587283E1,-1.654015779E0,7.975514442E-2,1.124039501E-1,1.659748092E0
1.522590683E1,-1.562404528E0,1.304329625E-1,1.103352052E-1,1.571717062E0
1.523593983E1,-1.269617191E0,3.477213433E-1,1.966178888E-1,1.330975784E0
1.524597383E1,-1.055240431E0,6.904596895E-1,2.300399888E-1,1.281867913E0
1.525600783E1,-9.094960955E-1,8.864355540E-1,2.372858584E-1,1.291996795E0
1.526604183E1,-6.665504247E-1,9.018131465E-1,3.528274244E-1,1.175603509E0
1.527607483E1,-3.656553385E-1,7.943237811E-1,2.395194948E-1,9.066552179E-1
1.528610883E1,-2.121727981E-1,5.635482126E-1,-5.350933224E-1,8.055611385E-1
1.529614283E1,-2.702517293E-1,3.172202200E-1,-1.329573224E0,1.393351938E0
1.530617683E1,2.332702830E-2,1.774448687E-1,-1.600968230E0,1.610940752E0
1.531621083E1,4.011279108E-1,1.456670058E-1,-1.583053531E0,1.639567309E0
1.532624383E1,4.725583743E-1,3.122734755E-1,-9.774650073E-1,1.129718541E0
1.533627783E1,6.235599411E-1,6.469786245E-1,3.356184840E-2,8.991855972E-1
1.534631183E1,8.998337178E-1,8.469598317E-1,9.104798895E-1,1.534931694E0
1.535634583E1,8.351331072E-1,8.767642593E-1,1.902824891E0,2.255416910E0
1.536637883E1,4.488702804E-1,6.919197392E-1,2.528261204E0,2.659387555E0
1.537641283E1,8.894784451E-3,4.233191174E-1,2.636466853E0,2.670250112E0
1.538644683E1,-5.607169908E-1,1.448875719E-1,2.381161045E0,2.450576234E0
1.539648083E1,-1.033500775E0,-3.279235482E-2,1.698561768E0,1.988545013E0
1.540651483E1,-1.384195428E0,-2.016067332E-1,5.551855248E-1,1.504949575E0
1.541654783E1,-1.459575247E0,-3.244210660E-1,-2.131397814E-1,1.510310397E0
1.542658183E1,-9.978976639E-1,-3.648329276E-1,-5.525922847E-1,1.197606382E0
1.543661583E1,-3.409929523E-1,-3.966663390E-1,-9.117306089E-1,1.051129431E0
1.544664983E1,3.169731751E-1,-3.838375479E-1,-1.080064346E0,1.189261220E0
1.545668283E1,7.827702677E-1,-4.162176740E-1,-1.071560740E0,1.390758378E0
1.546671683E1,9.131009039E-1,-2.932413733E-1,-8.245310819E-1,1.264751070E0
1.547675083E1,9.501506165E-1,-6.107533693E-2,-2.876549435E-1,9.946163870E-1
1.548678483E1,9.449182355E-1,1.962196934E-1,9.191530645E-2,9.694436876E-1
1.549681883E1,8.657454738E-1,4.118264151E-1,2.236606765E-1,9.844492469E-1
1.550685183E1,7.909468679E-1,5.995664763E-1,3.835112733E-1,1.064029043E0
1.551688583E1,5.770927030E-1,6.521978492E-1,4.955298918E-1,1.001972004E0
1.552691983E1,3.745260032E-1,5.667682743E-1,5.726839024E-1,8.885172232E-1
1.553695383E1,5.015267962E-1,4.363478833E-1,8.712900960E-1,1.095935689E0
1.554698683E1,5.948875344E-1,1.822115189E-1,1.030218587E0,1.203512589E0
1.555702083E1,4.364728676E-1,-1.624116772E-1,1.034143238E0,1.134168574E0
1.556705483E1,6.108859549E-1,-4.316771275E-1,9.080743450E-1,1.176488763E0
1.557708883E1,9.422624302E-1,-5.109899300E-1,4.868339127E-1,1.177275012E0
1.558712183E1,1.074371643E0,-5.620519102E-1,-1.705252737E-1,1.224440953E0
1.559715583E1,1.094941856E0,-5.877574396E-1,-7.034615582E-1,1.428010728E0
1.560718983E1,1.036235372E0,-7.392675680E-1,-9.547626078E-1,1.591185696E0
1.561722383E1,1.086082885E0,-8.148685580E-1,-7.640965998E-1,1.558021314E0
1.562725783E1,1.076622967E0,-8.567679513E-1,-1.807315886E-1,1.387743580E0
1.563729083E1,9.623810913E-1,-9.516249919E-1,2.294096589E-1,1.372733143E0
1.564732483E1,9.247073346E-1,-1.016907985E0,3.065905666E-1,1.408255403E0
1.565735883E1,8.588273406E-1,-9.409497303E-1,1.798106521E-1,1.286585662E0
1.566739283E1,8.150142999E-1,-6.738746470E-1,-6.868841171E-2,1.059751597E0
1.567742583E1,9.266534342E-1,-3.431187075E-1,-2.885308564E-1,1.029401326E0
1.568745983E1,1.024360554E0,-1.873675936E-1,-5.640206677E-1,1.184289016E0
1.569749383E1,9.250037885E-1,-6.757393241E-2,-8.876897818E-1,1.283819066E0
1.570752783E1,7.766118340E-1,5.673377931E-2,-1.114469948E0,1.359554312E0
1.571756183E1,7.613368602E-1,1.577953005E-1,-1.028539267E0,1.289351075E0
1.572759483E1,1.001704347E0,3.269248438E-1,-5.938724577E-1,1.209535427E0
1.573762883E1,1.425090415E0,5.141322237E-1,1.766011155E-1,1.525254926E0
1.574766283E1,1.601101547E0,5.901226383E-1,4.366671413E-1,1.761377042E0
1.575769683E1,1.445307164E0,6.660148197E-1,-1.410336721E-1,1.597616673E0
1.576772983E1,1.318501229E0,8.201883548E-1,-9.042818409E-1,1.796908477E0
1.577776383E1,1.150069478E0,8.837388182E-1,-1.345626170E0,1.978475143E0
1.578779783E1,9.910293782E-1,7.380150944E-1,-1.439095082E0,1.896786799E0
1.579783183E1,9.932934201E-1,4.204838026E-1,-1.236458654E0,1.640813350E0
1.580786583E1,7.600718151E-1,1.385509443E-1,-1.142599733E0,1.379289555E0
1.581789883E1,4.320659673E-1,6.219098568E-2,-1.120130637E0,1.202181918E0
1.582793283E1,4.544416536E-1,1.642968196E-1,-1.138506097E0,1.236813161E0
1.583796683E1,6.620128392E-1,2.684152651E-1,-1.133958133E0,1.340212222E0
1.584800083E1,8.053766267E-1,3.315973538E-1,-8.838171709E-1,1.240854990E0
1.585803383E1,8.728295217E-1,4.142068166E-1,-5.491921288E-1,1.111310333E0
1.586806783E1,9.174610265E-1,4.366384900E-1,-2.847231495E-1,1.055203856E0
1.587810183E1,1.013980577E0,3.320633769E-1,-1.250333512E-1,1.074270001E0
1.588813583E1,9.127281439E-1,1.645149207E-1,-3.264974123E-1,9.832285513E-1
1.589816983E1,7.174242707E-1,2.564618021E-1,-4.785905081E-1,8.997328017E-1
1.590820283E1,2.690512960E-1,5.200004894E-1,-5.564795136E-1,8.077490686E-1
1.591823683E1,-1.520827170E-1,7.261563563E-1,-3.560995263E-1,8.229453683E-1
1.592827083E1,-1.426046728E-1,8.241457504E-1,-3.011666894E-2,8.369344803E-1
1.593830483E1,1.526846878E-1,7.952610898E-1,8.263460577E-2,8.139909661E-1
1.594833758E1,3.919657624E-1,7.426583683E-1,-8.576871336E-2,8.441178135E-1
1.595837158E1,5.273451769E-1,6.578532761E-1,-3.979731917E-1,9.323339155E-1
1.596840558E1,7.192869743E-1,6.349561644E-1,-8.691161013E-1,1.294567835E0
1.597843958E1,6.108370576E-1,5.635809571E-1,-1.443361210E0,1.665544052E0
1.598847258E1,2.609814806E-1,4.755832851E-1,-1.822463098E0,1.901489558E0
1.599850658E1,9.554927789E-2,4.260076672E-1,-1.727641726E0,1.781953459E0
1.600854058E1,1.989756323E-2,4.198020172E-1,-1.170917798E0,1.244057128E0
1.601857458E1,-1.421086096E-1,5.227211988E-1,-2.676890409E-1,6.042265562E-1
1.602860858E1,-7.467011333E-2,6.772660321E-1,4.945469749E-1,8.419273214E-1
1.603864158E1,2.125650731E-1,7.017021310E-1,5.592674661E-1,9.221441805E-1
1.604867558E1,5.543694728E-1,7.731562757E-1,2.014055890E-1,9.724506930E-1
1.605870958E1,6.962121803E-1,7.551614696E-1,-2.074568725E-1,1.047863827E0
1.606874358E1,6.587253153E-1,6.237359422E-1,-5.891350436E-1,1.081686492E0
1.607877658E1,6.847112918E-1,5.466871816E-1,-8.103012979E-1,1.193433962E0
1.608881058E1,5.738732991E-1,4.084093022E-1,-7.053040159E-1,9.967860735E-1
1.609884458E1,2.452903312E-1,2.188706374E-1,-3.474672818E-1,4.783358803E-1
1.610887858E1,-4.418448508E-3,1.878815639E-1,1.620403790E-1,2.481452985E-1
1.611891258E1,-1.798744599E-1,3.311927265E-1,9.862755919E-1,1.055832840E0
1.612894558E1,-8.409027010E-3,5.811173415E-1,1.808387681E0,1.899482582E0
1.613897958E1,1.400640576E-1,9.164341092E-1,2.158521293E0,2.349187857E0
1.614901358E1,3.144274436E-1,1.074059256E0,2.070060521E0,2.353214496E0
1.615904758E1,4.651274402E-1,1.045711954E0,1.879583378E0,2.200611439E0
1.616908058E1,5.226768330E-1,8.375832367E-1,1.630035324E0,1.905715589E0
1.617911458E1,5.019702344E-1,4.871022999E-1,1.076473571E0,1.283759368E0
1.618914858E1,2.585862418E-1,1.003762275E-1,5.125774491E-1,5.828189022E-1
