"Time (s)","Linear Acceleration x (m/s^2)","Linear Acceleration y (m/s^2)","Linear Acceleration z (m/s^2)","Absolute acceleration (m/s^2)"
5.301291705E-3,-4.383102089E-1,1.960010076E-1,-1.014350998E0,1.122247825E0
1.529029169E-2,-4.851393896E-1,3.527812314E-1,-7.821399379E-1,9.856762689E-1
2.528029168E-2,-5.573484099E-1,3.290742803E-1,-5.803367382E-1,8.693203447E-1
3.526929166E-2,-5.791696340E-1,2.590755075E-1,-3.665385604E-1,7.327401311E-1
4.525929166E-2,-5.653523710E-1,1.794849622E-1,-2.287138402E-1,6.357264945E-1
5.524829170E-2,-4.909053290E-1,2.461859053E-1,-5.630167007E-2,5.520556313E-1
6.523829169E-2,-5.283886126E-1,3.073758477E-1,5.507901728E-2,6.137655381E-1
7.522729167E-2,-5.448265976E-1,1.950280309E-1,1.122437364E-1,5.894663778E-1
8.521729166E-2,-3.555121735E-1,5.528016150E-2,1.636594731E-1,3.952584280E-1
9.520629171E-2,-2.245074995E-1,7.112962425E-2,2.831543416E-1,3.682925765E-1
1.051962917E-1,-1.051653895E-1,1.103480691E-1,5.372585464E-1,5.584650402E-1
1.151852917E-1,-1.407497898E-1,2.011629295E-1,6.892364520E-1,7.316583317E-1
1.251752917E-1,-1.823945367E-1,3.437040138E-1,5.939426243E-1,7.100479260E-1
1.351642917E-1,-3.114846861E-1,2.624680620E-1,4.557536227E-1,6.112475422E-1
1.451542917E-1,-5.396246222E-1,1.783055788E-1,5.621747017E-1,7.993922739E-1
1.551432917E-1,-7.829866147E-1,4.388984388E-1,7.063226008E-1,1.142187154E0
1.651332917E-1,-1.197187292E0,8.129272825E-1,1.305238282E0,1.948782992E0
1.751232917E-1,-1.394059827E0,9.116838312E-1,1.474042135E0,2.224268515E0
1.851122917E-1,-8.314952619E-1,3.833510596E-1,6.507904243E-1,1.123330130E0
1.951022917E-1,1.043002939E-1,-5.060063481E-2,-9.763680696E-2,1.515649090E-1
2.050912917E-1,6.412825593E-1,1.673297703E-2,-3.173587990E-1,7.157093829E-1
2.150812917E-1,1.122538959E0,2.859422940E-1,-9.382442236E-2,1.162178873E0
2.250705833E-1,6.097602198E-1,6.091284281E-1,1.307039809E-1,8.717387786E-1
2.350605833E-1,-1.863201381E-1,8.683536243E-1,-5.859319389E-1,1.063987522E0
2.450495833E-1,-4.564035407E-1,1.288850291E0,-1.762253734E0,2.230465756E0
2.550395834E-1,-8.795992818E-1,6.827261621E-1,3.792661947E-1,1.176287701E0
2.650285834E-1,-1.118048151E0,-5.101309741E-1,1.056013579E0,1.620317857E0
2.750185833E-1,-1.016177376E0,-8.215373075E-1,4.066791111E-1,1.368549563E0
2.850075833E-1,-9.340696040E-1,-9.298359275E-1,8.006124616E-2,1.320413072E0
2.949975833E-1,-2.391959427E-1,-8.767531496E-1,2.541579992E-1,9.436668231E-1
3.049865834E-1,9.937275027E-1,-3.483601516E-1,1.648417801E-1,1.065843308E0
3.149765834E-1,1.625807349E0,9.525710714E-1,-5.752864981E-1,1.970176575E0
3.249655833E-1,1.681611128E0,1.672498389E0,-8.955162799E-1,2.535156061E0
3.349555833E-1,1.808144290E0,1.864512765E0,-4.028129321E-1,2.628317310E0
3.449455833E-1,2.038084145E0,1.894890220E0,1.828026724E-1,2.788873024E0
3.549345834E-1,1.946313411E0,1.390853214E0,-3.985532355E-1,2.425170765E0
3.649245834E-1,1.599120218E0,7.148835093E-2,-1.597169294E0,2.261248728E0
3.749135833E-1,7.807269582E-1,-1.343804762E0,-1.672388461E0,2.283030659E0
3.849035833E-1,-6.572942823E-2,-1.984241522E0,-7.841975731E-1,2.134596123E0
3.948925834E-1,3.456572762E-1,-1.881067402E0,-1.090250196E0,2.201485638E0
4.048825834E-1,3.487913838E-1,-1.752208802E0,-2.131527037E0,2.781240483E0
4.148715833E-1,4.293443808E-1,-1.000419714E0,-8.737465113E-1,1.395925918E0
4.248615833E-1,3.690160257E-1,9.667493999E-2,-1.923133441E0,1.960602229E0
4.348505833E-1,2.276462848E-1,-4.574130625E-2,-2.622146437E0,2.632407080E0
4.448405834E-1,-4.973486683E-1,-1.160925491E0,-1.632625056E0,2.064114403E0
4.548295834E-1,-1.509721992E0,-2.360109315E0,-6.716696620E-2,2.802478880E0
4.648195833E-1,-2.420670389E0,-3.145525448E0,4.257410342E-1,3.991895653E0
4.748085833E-1,-2.764636651E0,-3.037080063E0,-8.224939120E-1,4.188504190E0
4.847985833E-1,-1.711643597E0,-3.080411439E0,-1.188129078E0,3.718912360E0
4.947875834E-1,-1.209370696E0,-2.865346754E0,-1.008811346E0,3.269631452E0
5.047775834E-1,2.498803516E0,-1.769749864E0,-1.714300718E0,3.509253560E0
5.147675833E-1,1.718779393E0,4.129888415E-2,-1.214566094E0,2.105012826E0
5.247565833E-1,1.236246985E0,1.703738893E0,-1.639724745E0,2.668282230E0
5.347465833E-1,9.497454044E-1,2.315776895E0,-1.720971222E0,3.037528750E0
5.447355834E-1,4.405523238E-1,1.020846670E0,-1.355478728E0,1.753150551E0
5.547255834E-1,-1.129951036E-1,-8.094844419E-1,-1.567223364E0,1.767546896E0
5.647145833E-1,-6.099198487E-1,-2.797916956E0,-1.375369202E0,3.176787993E0
5.747045833E-1,-4.609178835E-1,-4.006811250E0,-1.141466542E0,4.191649742E0
5.846935834E-1,-5.983923554E-1,-4.357290140E0,-5.684914488E-1,4.434775452E0
5.946835834E-1,-9.785926428E-1,-3.881617101E0,-7.773001975E-1,4.077841399E0
6.046725833E-1,-1.442306080E0,-3.574308203E0,-1.885014272E0,4.290594920E0
6.146625833E-1,-9.498415911E-1,-4.020032097E0,-1.261176589E0,4.318960928E0
6.246515833E-1,2.117510676E-2,-3.692357348E0,-4.131315136E-1,3.715458090E0
6.346415834E-1,8.521615148E-2,-3.113183913E0,-9.841045207E-1,3.266134960E0
6.446305834E-1,-8.262434390E-1,-3.318780494E0,-2.245284033E-1,3.427447329E0
6.546205833E-1,-1.569033077E0,-2.376383578E0,1.349708111E0,3.151313328E0
6.646095833E-1,-1.595494359E0,-1.107624612E0,6.520773965E-1,2.048814160E0
6.745995833E-1,-1.125763845E0,-8.252625686E-1,3.702620673E-1,1.444124835E0
6.845895834E-1,-6.046406901E-1,-9.755053130E-1,1.192823807E0,1.655303481E0
6.945785834E-1,-2.593283996E-1,-8.206760126E-1,1.681583208E0,1.889042726E0
7.045685833E-1,2.292532459E-1,-7.265375948E-1,2.198280020E0,2.326553024E0
7.145575833E-1,4.637996837E-1,-7.774852619E-1,2.406142690E0,2.570820126E0
7.245475833E-1,8.972143114E-2,-7.015223292E-1,2.456197779E0,2.555991206E0
7.345365834E-1,-3.453464967E-1,-4.881460279E-1,2.335244030E0,2.410584043E0
7.445265834E-1,-4.084338605E-1,-3.038733655E-1,2.048445704E0,2.110755088E0
7.545155833E-1,-2.527271855E-1,-4.161498463E-1,1.964750413E0,2.024177836E0
7.645055833E-1,-5.153145307E-1,-3.069946092E-1,1.706032171E0,1.808408284E0
7.744945834E-1,-9.393891084E-1,2.926850107E-1,1.661182857E0,1.930710982E0
7.844845834E-1,-1.105873371E0,8.810758500E-1,1.775733905E0,2.269907810E0
7.944735833E-1,-7.485289729E-1,1.079632383E0,1.779603592E0,2.211987941E0
8.044635833E-1,-4.938897479E-1,1.091591839E0,2.176273440E0,2.484283782E0
8.144525833E-1,-4.570212990E-1,1.290877667E0,2.548360423E0,2.892987118E0
8.244425834E-1,-9.903277123E-1,1.373126210E0,3.077235816E0,3.512207971E0
8.344325834E-1,-1.571239817E0,1.308967782E0,2.968566483E0,3.604799326E0
8.444215833E-1,-1.595967692E0,1.553581225E0,2.381691973E0,3.260856352E0
8.544115833E-1,-1.102474970E0,1.765033354E0,1.710759060E0,2.693972969E0
8.644005833E-1,-2.795290679E-1,1.784407957E0,7.680434704E-1,1.962686686E0
8.743905834E-1,3.926487172E-1,1.879215296E0,-1.917822415E-1,1.929353149E0
8.843795834E-1,6.797154307E-1,1.841257950E0,-6.210029536E-1,2.058613264E0
8.943695833E-1,6.609154630E-1,1.758830189E0,-2.769574624E-1,1.899209920E0
9.043585833E-1,5.342226720E-1,1.594031240E0,3.626033843E-1,1.719828675E0
9.143485833E-1,1.637495202E-1,1.072211609E0,1.143570955E0,1.576136469E0
9.243375834E-1,-3.427444857E-1,6.479027769E-1,1.937483093E0,2.071495239E0
9.343275834E-1,-1.043325706E0,9.030137991E-1,2.004811442E0,2.433768963E0
9.443165833E-1,-1.846850665E0,7.149590115E-1,1.750638825E0,2.643248014E0
9.543065833E-1,-1.896366642E0,5.152391016E-1,1.553342074E0,2.504905062E0
9.642955834E-1,-1.167470865E0,-2.549060773E-1,1.117140371E0,1.635838604E0
9.742855834E-1,-2.119662452E-1,4.346989685E-1,5.259927160E-1,7.145356671E-1
9.842755834E-1,8.426013172E-1,1.674931123E0,-2.584878623E-2,1.875110505E0
9.942645833E-1,6.523375976E-1,1.476457182E0,-6.072830468E-1,1.724605129E0
1.004254583E0,8.044271851E-1,1.098340550E0,-8.627701181E-1,1.611777694E0
1.014243583E0,1.781882837E0,7.670293439E-1,-5.056625319E-1,2.004778056E0
1.024233583E0,2.744689459E0,3.821296493E-1,3.050305295E-1,2.787900092E0
1.034222583E0,2.891307222E0,1.356594962E-1,9.416572434E-1,3.043810000E0
1.044212583E0,2.782435575E0,2.503725117E-1,1.229257223E0,3.052164387E0
1.054201583E0,2.572687764E0,3.209495741E-1,2.390548750E0,3.526535734E0
1.064191583E0,2.488584337E0,1.243052997E-1,2.626418413E0,3.620300746E0
1.074180583E0,2.980798858E0,2.998703617E-1,2.967676536E0,4.216893180E0
1.084170583E0,3.785760478E0,5.886880971E-1,3.516896147E0,5.200682127E0
1.094159583E0,4.604998661E0,6.635860325E-1,3.663603957E0,5.921853852E0
1.104149583E0,6.317424762E0,9.013722664E-1,4.502186483E0,7.809738197E0
1.114138583E0,7.960951366E0,7.849784687E-1,4.874688619E0,9.367792002E0
1.124128583E0,8.703564711E0,8.932195667E-2,5.247274954E0,1.016336123E1
1.134118583E0,8.278788468E0,5.151951744E-1,5.248920946E0,9.816054994E0
1.144107583E0,6.975181559E0,1.026164493E0,5.028169844E0,8.659599490E0
1.154097583E0,5.603091475E0,1.132663998E0,4.366293098E0,7.193196594E0
1.164086583E0,4.513000324E0,1.241663845E0,3.311143738E0,5.733460899E0
1.174076583E0,3.259800214E0,9.244232330E-1,2.316601937E0,4.104570658E0
1.184065583E0,1.886134599E0,5.053099447E-1,1.257282343E0,2.322412701E0
1.194055583E0,4.410291642E-1,3.608378906E-1,-9.476056159E-2,5.776593036E-1
1.204044583E0,-9.417408586E-1,1.034138560E-1,-1.410332043E0,1.699001690E0
1.214034583E0,-2.441751648E0,-2.438684345E-1,-2.283819523E0,3.352231277E0
1.224023792E0,-3.837993656E0,2.880586937E-2,-2.460558048E0,4.559097607E0
1.234013792E0,-5.069966326E0,4.766751795E-1,-2.457398213E0,5.654253598E0
1.244002792E0,-5.899910760E0,5.737232450E-1,-2.351106357E0,6.376974709E0
1.253992792E0,-6.409970398E0,4.345696720E-1,-2.342907976E0,6.838551680E0
1.263982792E0,-6.606599396E0,3.190506177E-1,-2.255703771E0,6.988358061E0
1.273971792E0,-6.852772438E0,2.232543681E-1,-2.068646665E0,7.161677989E0
1.283961792E0,-7.158253203E0,6.089209981E-2,-1.685470437E0,7.354257771E0
1.293950792E0,-7.870394953E0,-2.253553092E-1,-7.240729934E-1,7.906844088E0
1.303940792E0,-9.055313909E0,-7.238135963E-1,7.156699598E-1,9.112343255E0
1.313929792E0,-1.021383093E1,-8.811819039E-1,2.488997735E0,1.054959400E1
1.323919792E0,-1.111517806E1,-8.776821260E-1,4.356075089E0,1.197050121E1
1.333908792E0,-1.142389935E1,-1.150711429E0,4.891286233E0,1.248015601E1
1.343898792E0,-1.062336056E1,-1.971293448E0,4.280865862E0,1.162185872E1
1.353887792E0,-1.041298242E1,-9.326811826E-1,2.761410742E0,1.081320888E1
1.363877792E0,-9.187089685E0,1.182402168E0,9.476760748E-1,9.311218057E0
1.373866792E0,-8.253115683E0,1.691981604E0,1.034208727E0,8.488009655E0
1.383856792E0,-7.494202639E0,2.676644826E0,8.762426877E-1,8.005954158E0
1.393845792E0,-6.587370243E0,2.916012878E0,8.186838663E-1,7.250298000E0
1.403835792E0,-6.127934044E0,3.138566969E0,7.983681540E-1,6.931058359E0
1.413825792E0,-5.789475567E0,3.409394503E0,9.029749882E-1,6.779185943E0
1.423814792E0,-5.357520112E0,3.534567310E0,9.520030144E-1,6.488643738E0
1.433804792E0,-4.601682120E0,3.685595920E0,9.838184457E-1,5.977206233E0
1.443793792E0,-3.560761959E0,3.289100027E0,2.791589391E-1,4.855423198E0
1.453783792E0,-2.512504712E0,2.501610180E0,-6.526837528E-1,3.605097710E0
1.463772792E0,-1.589605921E0,1.982723292E0,-1.875150166E0,3.158199927E0
1.473762792E0,-4.571838516E-1,2.123768951E0,-2.754628556E0,3.508189008E0
1.483751792E0,5.942642212E-1,2.533317291E0,-3.378240538E0,4.264194601E0
1.493741792E0,1.284933826E0,2.498474318E0,-4.075453176E0,4.950024995E0
1.503730792E0,1.796400304E0,2.603818924E0,-4.499599675E0,5.500302199E0
1.513720792E0,2.074545336E0,2.276882386E0,-4.803276574E0,5.706084261E0
1.523709792E0,2.059338482E0,1.424348989E0,-4.624225475E0,5.258622089E0
1.533699792E0,1.883465345E0,5.966387755E-1,-3.924867493E0,4.394087433E0
1.543688792E0,1.372330404E0,-3.852391255E-1,-2.947587842E0,3.274137140E0
1.553678792E0,7.406603748E-1,-1.061519317E0,-2.003307099E0,2.385087081E0
1.563668792E0,2.296201587E-1,-1.497115833E0,-1.580337499E0,2.188960449E0
1.573657792E0,-1.684261233E-1,-1.589419395E0,-1.183070797E0,1.988536619E0
1.583647792E0,-1.974277282E-1,-1.719950883E0,-9.479770602E-1,1.973795646E0
1.593636792E0,-2.579160047E-1,-1.782757580E0,-6.175257607E-1,1.904227749E0
1.603626792E0,-2.044783008E-1,-1.605487543E0,-1.282960975E-1,1.623533651E0
1.613615792E0,1.979346818E-1,-1.968774467E0,8.747867310E-1,2.163446987E0
1.623605792E0,4.158229870E-1,-1.416648790E0,1.925996237E0,2.426780595E0
1.633594792E0,8.860227406E-1,-1.124911906E0,2.263612130E0,2.678507601E0
1.643584792E0,2.083183427E0,-1.670619094E0,1.715073720E0,3.173657073E0
1.653573792E0,2.727039054E0,-1.377605762E0,5.905850069E-1,3.111804989E0
1.663563792E0,2.443526278E0,-7.815517080E-1,-7.688031699E-1,2.678190071E0
1.673552792E0,1.823752994E0,-4.082508427E-1,-1.226662229E0,2.235496356E0
1.683542792E0,1.504262300E0,-7.539312154E-1,-1.488574805E0,2.246569005E0
1.693531792E0,1.459258035E0,-1.594027585E0,-2.904668695E-1,2.180534100E0
1.703521792E0,5.388291669E0,-4.323741741E0,1.674166015E0,7.108534420E0
1.713511792E0,6.629963701E0,1.914606446E-1,4.344354930E0,7.928839487E0
1.723500792E0,6.626828424E0,3.250911570E-1,3.818160485E0,7.654991098E0
1.733490792E0,4.880659795E0,6.662375987E-1,1.911926082E0,5.283954383E0
1.743479792E0,3.445868264E0,-5.442436302E-1,-1.959735256E0,4.001346211E0
1.753469792E0,2.789051115E0,2.391791868E-1,-4.128549403E0,4.988079087E0
1.763458792E0,2.776374936E0,1.403372687E0,-2.731885811E0,4.140158544E0
1.773448792E0,2.047840517E0,8.031191629E-1,-1.874463556E0,2.890028512E0
1.783437792E0,1.111082656E0,-5.976883507E-1,6.813380331E-1,1.433861063E0
1.793427792E0,5.849051678E-1,-2.137759584E0,2.931708559E0,3.675193215E0
1.803416792E0,1.310260456E0,-1.951887708E0,3.170367343E0,3.946881957E0
1.813406792E0,2.153555837E0,-9.231157225E-1,1.901133730E0,3.017325777E0
1.823395792E0,2.189296358E0,-1.193603826E-1,1.237778809E0,2.517808933E0
1.833385792E0,1.846964686E0,6.531667328E-1,2.250973374E-2,1.959186571E0
1.843375792E0,7.724569488E-1,2.160987648E0,-9.291766539E-1,2.475868859E0
1.853364792E0,-1.336378214E0,2.334188608E0,1.161210836E0,2.929633730E0
1.863354792E0,-5.246721223E0,9.870608729E-1,5.722562370E0,7.826243853E0
1.873343792E0,-3.571621993E0,1.787051191E0,-6.042138433E-1,4.039196700E0
1.883333792E0,-1.276112716E0,3.202770274E0,-9.405123585E-1,3.573620655E0
1.893322792E0,-3.221663797E-1,3.318636945E0,2.650626178E0,4.259455538E0
1.903312792E0,-5.142959458E-1,2.789618880E0,2.198414945E0,3.588802319E0
1.913301792E0,-2.108718218E0,5.749228013E-1,2.762159185E0,3.522321978E0
1.923291792E0,-3.230993614E0,-2.331825163E0,2.045177695E0,4.478781099E0
1.933280792E0,-1.280343761E0,-5.528374000E0,8.497542161E-1,5.737968408E0
1.943270792E0,4.246339223E0,-4.009453899E0,8.136564302E-1,5.896537472E0
1.953259792E0,6.352684057E0,-3.449457870E0,-5.925042093E-2,7.229029322E0
1.963249792E0,6.633373797E0,-3.128304813E0,-1.629034281E-2,7.334044199E0
1.973238792E0,5.356435454E0,-4.848452747E-1,2.033029520E0,5.749755190E0
1.983228792E0,4.407049069E0,9.159359264E-1,6.433749855E0,7.852016130E0
1.993217792E0,3.228503285E0,1.465402290E0,6.988723125E0,7.836637561E0
2.003207792E0,1.587540977E0,2.572735126E0,6.567847559E0,7.230205664E0
2.013197792E0,5.291589832E-1,3.616485339E0,4.243499815E0,5.600559447E0
2.023186792E0,-2.103410116E0,2.681208578E0,-2.440101564E0,4.191337399E0
2.033176792E0,-3.135905901E0,1.112530426E0,-1.127104027E1,1.175193509E1
2.043165792E0,-2.499602538E0,-8.051791370E-2,-1.253229755E1,1.277939661E1
2.053155792E0,-3.544339761E0,-2.977899224E-1,-4.667141114E0,5.867983416E0
2.063144792E0,-4.570894191E0,1.198400881E0,1.932036996E-2,4.725421849E0
2.073134792E0,-1.393716888E0,2.097492149E0,-7.502584331E-1,2.627700096E0
2.083123792E0,1.289574907E0,2.438178415E0,-1.838257012E0,3.314650248E0
2.093113792E0,2.989535767E0,2.134770488E0,-2.400278517E0,4.388155204E0
2.103102792E0,3.822460527E0,1.955527015E0,-7.289336376E-1,4.355069992E0
2.113092792E0,4.082601398E0,2.064957656E0,2.299550872E0,5.120509594E0
2.123082792E0,2.751866332E0,1.611685007E0,5.235925509E0,6.130678005E0
2.133071792E0,-5.654634681E-1,5.762138665E-2,7.120918146E0,7.143566645E0
2.143061792E0,-3.522836041E0,-1.812728654E0,3.846422417E0,5.521894997E0
2.153050792E0,-5.381341084E0,-4.593100746E0,-2.819228010E0,7.615999797E0
2.163040792E0,-5.513973477E0,-7.256247860E0,-7.875732876E0,1.204509049E1
2.173029792E0,-2.994405913E0,-7.249665064E0,-5.728083311E0,9.712623165E0
2.183019792E0,-6.761369348E-2,-5.854394279E0,-3.409757030E-1,5.864705314E0
2.193008792E0,8.430044827E-1,-4.846644788E0,1.563350022E0,5.161849044E0
2.202998792E0,5.588211773E-1,-4.073560433E0,3.031523454E0,5.108454772E0
2.212987792E0,-2.900066936E-1,-2.040312812E0,1.755724441E-1,2.068285748E0
2.222977792E0,-7.405796832E-1,-4.765393049E-1,-8.619336739E-1,1.232265245E0
2.232966792E0,3.400383943E-1,1.022582123E1,4.613713351E-1,1.024187041E1
2.242956792E0,-1.493517457E0,9.439082460E0,-2.270757428E0,9.822586796E0
2.252946792E0,-3.254982986E0,4.026687983E0,-2.598142155E0,5.793053858E0
2.262935792E0,-1.478534113E0,3.194085989E0,2.594517758E-1,3.529244062E0
2.272925792E0,1.702239959E-1,-2.713581687E-1,5.470576027E-1,6.339428091E-1
2.282914792E0,1.432773364E0,-1.423081312E0,4.669106948E-1,2.072680760E0
2.292904792E0,1.500330194E0,-1.327544240E0,-5.255910122E-1,2.071137444E0
2.302893792E0,1.707742335E0,-1.114271727E0,-2.353517164E0,3.114005203E0
2.312883792E0,1.885034007E0,-9.896044117E-1,-3.377587404E0,3.992588981E0
2.322872792E0,1.415507560E0,-8.743669009E-1,-1.855902447E0,2.492499353E0
2.332862792E0,5.065147635E-1,-6.255164194E-1,-1.734260774E-1,8.233496225E-1
2.342851792E0,-1.204818785E-2,6.351959002E-1,2.518448406E-1,6.834067707E-1
2.352841792E0,-2.045655705E-1,2.563230477E0,-2.267152619E-1,2.581355721E0
2.362830792E0,-3.743098024E-1,4.793438634E0,-5.345121092E-1,4.837650768E0
2.372820792E0,-7.172093124E-1,5.360586392E0,1.182831208E0,5.536186895E0
2.382809792E0,-5.647387058E-1,4.487118793E0,1.541075785E0,4.777873946E0
2.392799792E0,3.685016169E-1,7.560321200E-1,5.572721037E-1,1.008925273E0
2.402789792E0,2.081043639E0,-1.838314900E0,-7.670620152E-1,2.880716653E0
2.412778792E0,1.856346397E0,-2.858154094E-1,-3.057824814E-1,1.902949111E0
2.422768792E0,7.884403127E-1,2.405766129E0,2.411450207E-2,2.531784016E0
2.432757792E0,-5.274064996E-1,3.292596370E0,-3.434458593E-1,3.352208754E0
2.442747792E0,-8.471011151E-1,3.510354282E0,-7.147352824E-1,3.681170196E0
2.452736792E0,-8.879033513E-1,3.368679171E0,-7.995760426E-1,3.574310222E0
2.462726792E0,-1.090337246E0,4.267787980E0,-1.656352472E-1,4.407979649E0
2.472715792E0,1.239863707E-1,1.970306438E0,-4.027271827E0,4.485130817E0
2.482705792E0,8.218211898E-1,1.049944169E0,-6.415319431E0,6.552411482E0
2.492694792E0,6.111017172E-1,-1.647786301E-1,-4.636715420E0,4.679714435E0
2.502684792E0,-1.372150383E-1,1.053936063E0,-1.317758925E0,1.692955338E0
2.512673792E0,3.824180632E-1,2.931361234E-1,4.684774563E-1,6.720442612E-1
2.522663792E0,1.217585011E0,1.367959026E0,-2.012290908E0,2.720871157E0
2.532653792E0,1.097336437E0,8.509388620E-1,-3.903514046E0,4.143146885E0
2.542642792E0,1.237796351E0,1.102609456E0,-3.341993648E0,3.730523952E0
2.552632792E0,9.920712789E-1,5.514275193E-1,-2.417680708E0,2.670853372E0
2.562621792E0,1.319649037E0,4.957409763E-1,-2.279737874E0,2.680380098E0
2.572611792E0,1.565149064E0,-5.860944915E-1,-2.729040264E0,3.200134233E0
2.582600792E0,1.809872581E0,-3.341537565E-1,-3.506659719E0,3.960297953E0
2.592590792E0,1.347956578E0,-4.332675701E-1,-3.277281050E0,3.570053054E0
2.602579792E0,5.046385382E-1,1.744902706E-1,-2.717515402E0,2.769475919E0
2.612569792E0,-5.649961294E-1,-5.539166790E-1,-2.515329794E0,2.636840588E0
2.622558792E0,-1.345417863E0,-7.426303017E-1,-2.085195454E0,2.590306753E0
2.632548792E0,-2.124000647E0,-1.090384682E0,-1.602316014E0,2.875366779E0
2.642538792E0,-2.684214047E0,-1.082628350E0,-1.335335655E0,3.187508511E0
2.652527792E0,-2.590342847E0,-9.181613767E-1,-8.010586041E-1,2.862619650E0
2.662517792E0,-1.582460916E0,-1.522653548E0,-1.694321367E-1,2.202581128E0
2.672506792E0,-2.256268027E-1,-2.440984493E0,-1.194010207E-1,2.454296102E0
2.682496792E0,4.613480924E-1,-2.479788371E0,-8.704758713E-1,2.668317947E0
2.692485792E0,3.698822907E-1,-2.403910223E0,-1.503735466E0,2.859513528E0
2.702475792E0,-1.214247420E-1,-2.785261534E0,-1.056735418E0,2.981461978E0
2.712464792E0,-8.852398715E-1,-2.449915531E0,-9.196901312E-1,2.762528855E0
2.722454792E0,-1.473013172E0,-2.011455633E0,-1.423242988E0,2.870773793E0
2.732443792E0,-2.618363581E0,-4.356220100E0,-3.343711852E0,6.083822018E0
2.742433792E0,-4.396864973E0,-6.451755770E0,-4.968834053E0,9.254560279E0
2.752423792E0,-5.248236237E0,-6.910057610E0,-5.585367980E0,1.031936118E1
2.762412792E0,-4.901924949E0,-4.148724636E0,-1.533638127E0,6.602486669E0
2.772402792E0,-3.878691446E0,2.583022133E0,3.957076003E0,6.113485190E0
2.782391792E0,-3.966736188E0,6.934901844E0,7.622512186E0,1.104221679E1
2.792381792E0,-5.019613613E0,8.439182271E0,7.612195358E0,1.242424390E1
2.802370792E0,-4.665104529E0,8.063265946E0,5.624469481E0,1.088182498E1
2.812360792E0,-2.746975428E0,6.147618111E0,2.759878479E0,7.277088130E0
2.822349792E0,8.324172217E-1,3.163966396E0,-7.883869569E-1,3.365286880E0
2.832339792E0,4.073311926E0,1.209384291E0,-2.788960483E0,5.082595891E0
2.842328792E0,4.654380736E0,6.499911100E-1,1.335258472E-1,4.701444207E0
2.852318792E0,4.026383635E0,-7.478501111E-1,4.948372307E0,6.423194957E0
2.862307792E0,3.276772050E0,-1.302912260E0,7.477242790E0,8.267041501E0
2.872297792E0,2.699675839E0,-8.465160280E-1,8.929209348E0,9.366729344E0
2.882287792E0,2.181021232E0,2.289793038E-1,8.637995789E0,8.912028747E0
2.892276792E0,1.629518430E0,9.140636480E-1,5.494817998E0,5.803780449E0
2.902266792E0,1.237101555E0,8.723811865E-1,1.099253227E0,1.870782416E0
2.912255792E0,6.629155031E-1,6.139792782E-1,-2.849096757E0,2.988942932E0
2.922245792E0,-7.536160505E-1,-1.976244870E0,-4.691640948E0,5.146355577E0
2.932234792E0,-2.567516486E0,-5.215539776E0,-4.190527550E0,7.166206612E0
2.942224792E0,-2.599259266E0,-5.244620903E0,7.883777475E-1,5.906245560E0
2.952213792E0,-1.160936090E0,-2.921067796E0,6.095676709E0,6.858402454E0
2.962203792E0,-2.098012405E-1,-1.936340547E-1,6.713171918E0,6.719240129E0
2.972192792E0,1.450743174E-1,1.307865436E0,4.974659050E0,5.145754679E0
2.982182792E0,3.919023932E-1,1.337392706E0,2.268325571E0,2.662237335E0
2.992172792E0,7.954148716E-1,1.299557712E0,2.201026458E-1,1.539474014E0
3.002161792E0,9.639477796E-1,1.328830628E0,-8.146323305E-1,1.832651629E0
3.012151792E0,1.019333410E0,1.156106801E0,-5.452054971E-1,1.634892220E0
3.022140792E0,1.006033480E0,5.310868102E-1,-1.194421705E-1,1.143863189E0
3.032130792E0,9.649583977E-1,-1.889001489E-2,-3.394437325E-1,1.023095103E0
3.042119792E0,9.647332799E-1,-3.063631099E-1,-7.754495537E-1,1.275104179E0
3.052109792E0,1.089561686E0,-4.960181344E-1,-1.469219937E0,1.895200749E0
3.062098792E0,1.306841881E0,-5.604339856E-1,-2.076891239E0,2.517021885E0
3.072088792E0,1.542050516E0,-5.009122539E-1,-2.306019062E0,2.818963780E0
3.082077792E0,1.721734137E0,-3.278563052E-1,-1.792711295E0,2.507124246E0
3.092067792E0,1.909259021E0,-1.720110512E-1,-7.181177504E-1,2.047083514E0
3.102057792E0,2.031006383E0,-2.777374810E-1,3.298005044E-1,2.076269108E0
3.112046792E0,2.147874536E0,-5.427134138E-1,7.422196810E-1,2.336405985E0
3.122036792E0,2.312306719E0,-8.459277982E-1,1.789328389E-1,2.468678424E0
3.132025792E0,2.698357292E0,-1.184237171E0,-1.334742894E0,3.234978878E0
3.142015792E0,3.247076381E0,-1.378339003E0,-3.434833984E0,4.923556431E0
3.152004792E0,3.704504061E0,-1.171551636E0,-4.789503458E0,6.167270624E0
3.161994792E0,3.951774625E0,-5.479466718E-1,-4.538848525E0,6.043005393E0
3.171983792E0,4.046008060E0,-3.046539688E-1,-3.007529404E0,5.050567135E0
3.181973792E0,3.905562910E0,-6.921314085E-1,-1.336497058E0,4.185533648E0
3.191962792E0,3.473508638E0,-1.205983551E0,-6.933851977E-1,3.741716399E0
3.201952792E0,3.382091222E0,-1.778444674E0,-6.649754772E-1,3.878607853E0
3.211942792E0,3.896493294E0,-2.294273175E0,-1.041579727E0,4.640176475E0
3.221931792E0,4.501441840E0,-2.630752954E0,-2.101958837E0,5.621571906E0
3.231921792E0,4.777064968E0,-2.868579095E0,-3.082570816E0,6.367993292E0
3.241910792E0,4.620486766E0,-2.847534966E0,-4.216292429E0,6.872734185E0
3.251900792E0,3.759350359E0,-2.475148020E0,-5.732687994E0,7.288537884E0
3.261889792E0,2.519055932E0,-2.346868295E0,-6.405653983E0,7.272264884E0
3.271879792E0,2.341169453E0,-2.774103878E0,-5.931298614E0,6.953921913E0
3.281868792E0,2.646801222E0,-3.366439102E0,-4.501316417E0,6.212915453E0
3.291858792E0,2.719009658E0,-3.032481228E0,-3.410405486E0,5.312233193E0
3.301848792E0,2.874844387E0,-2.350287747E0,-4.192017421E0,5.600142212E0
3.311837792E0,2.881138330E0,-1.991249410E0,-4.574651027E0,5.761376945E0
3.321827792E0,2.352986091E0,-1.990037282E0,-3.825358407E0,4.912245807E0
3.331816792E0,1.619584303E0,-3.875857301E0,-2.837670128E0,5.069289387E0
3.341806792E0,3.941751328E-1,-7.258861565E0,-2.000265816E0,7.539728682E0
3.351795792E0,-1.479713350E0,-1.007968177E1,-3.983170080E-1,1.019549865E1
3.361785792E0,-3.860616241E0,-1.023172809E1,2.410467875E0,1.119834688E1
3.371774792E0,-6.286439781E0,-8.726306287E0,4.181270238E0,1.153909734E1
3.381764792E0,-7.474168909E0,-7.061565399E0,4.226339407E0,1.111714224E1
3.391753792E0,-7.688692142E0,-5.071810538E0,2.879765403E0,9.650507642E0
3.401743792E0,-7.008874969E0,-3.526626499E0,-5.498031628E-1,7.865348455E0
3.411732792E0,-4.982773815E0,-2.614683636E0,-3.366979970E0,6.557526937E0
3.421722792E0,-2.321189955E0,-2.736913832E0,-1.795067285E0,4.012591019E0
3.431712792E0,-1.277161999E-1,-2.347706201E0,1.508572429E0,2.793532997E0
3.441701792E0,-1.653727803E-1,-4.369500296E0,7.433982750E0,8.624614804E0
3.451691792E0,-1.670254228E-1,-5.326307091E0,5.750070596E0,7.839691102E0
3.461680792E0,-2.789838150E-2,-3.881770590E0,3.723123350E0,5.378714411E0
3.471670792E0,6.260701507E-2,-3.054893020E0,3.649055500E0,4.759400913E0
3.481659792E0,-1.122998989E0,-2.133910362E0,3.432707936E0,4.195018944E0
3.491649792E0,-2.294565390E0,-3.981854457E-1,4.159394050E0,4.766984460E0
3.501638792E0,-2.794005753E0,1.276120902E0,5.985322208E0,6.727483530E0
3.511628792E0,-3.187295617E0,2.639468229E0,6.369926326E0,7.596157403E0
3.521618792E0,-3.021721474E0,3.496679984E0,6.595755150E0,8.053667337E0
3.531607792E0,-2.690975767E0,3.774815075E0,5.955021937E0,7.546712244E0
3.541597792E0,-2.564364837E0,3.719189343E0,4.506459044E0,6.380948950E0
3.551586792E0,-2.490171564E0,3.810360884E0,4.740773347E0,6.572270263E0
3.561576792E0,-2.691304380E0,4.309555811E0,6.074695145E0,7.919426221E0
3.571565792E0,-3.253287001E0,5.052028238E0,6.702107817E0,9.001395159E0
3.581555792E0,-3.723949562E0,5.647809811E0,7.175798358E0,9.861928720E0
3.591544792E0,-3.903600000E0,5.899594426E0,6.876052542E0,9.865262587E0
3.601534792E0,-3.751012230E0,6.053627627E0,6.131235382E0,9.397262767E0
3.611523792E0,-3.412918035E0,6.296678841E0,5.376413051E0,8.955556444E0
3.621513792E0,-3.096728387E0,6.449721524E0,4.792675280E0,8.611525462E0
3.631503792E0,-2.766105179E0,6.574232134E0,4.496291320E0,8.431399745E0
3.641492792E0,-2.335061013E0,6.786606515E0,4.234381960E0,8.333098374E0
3.651482792E0,-1.899013968E0,7.068199650E0,3.710020032E0,8.205482861E0
3.661471792E0,-1.493890948E0,7.248987957E0,2.840511583E0,7.927675738E0
3.671461792E0,-1.022806729E0,7.154353110E0,1.648662799E0,7.412758667E0
3.681450792E0,-6.256108519E-1,6.616211050E0,9.443954945E-2,6.646394242E0
3.691440792E0,-1.982036902E-1,5.497419425E0,-2.052278846E0,5.871350228E0
3.701429792E0,6.840931680E-2,3.641112058E0,-4.915757707E0,6.117765171E0
3.711419792E0,6.012347235E-1,1.045610797E0,-7.059097874E0,7.161399858E0
3.721409792E0,1.313260077E0,-2.683458002E0,-6.878182683E0,7.498999660E0
3.731398792E0,1.929104910E0,-6.727298791E0,-4.662962987E0,8.409590870E0
3.741388792E0,2.958246147E0,-1.019825746E1,-5.914715910E0,1.215481550E1
3.751377792E0,3.858250750E0,-1.211316913E1,-7.488736078E0,1.475452924E1
3.761367792E0,3.408115132E0,-1.158797456E1,-7.482349749E0,1.420851719E1
3.771356792E0,1.712690980E0,-8.750004467E0,-6.487916121E0,1.102673769E1
3.781346792E0,2.574535264E-1,-4.970335034E0,-4.802278747E0,6.916096719E0
3.791335792E0,-3.946596112E-1,-8.193978113E-1,-2.917172088E0,3.055660645E0
3.801325792E0,-5.203981366E-1,3.455750059E0,-9.929118893E-1,3.633028586E0
3.811314792E0,-8.386550313E-1,6.043975629E0,-1.112606733E0,6.202489613E0
3.821304792E0,-1.496448958E0,4.808059596E0,-3.276138504E0,6.007485336E0
3.831294792E0,-1.641202337E0,1.822644947E0,-2.941556147E0,3.829925884E0
3.841283792E0,-2.405819339E0,4.479201078E-2,7.754381517E-1,2.528097573E0
3.851273792E0,-4.864391672E0,-2.332359599E0,3.184945914E0,6.264669833E0
3.861262792E0,-7.525978748E0,-5.545553704E0,3.618914565E0,1.002447328E1
3.871252792E0,-9.784592679E0,-1.052702417E1,1.246086094E0,1.442599121E1
3.881241792E0,-7.853912821E0,-1.834889601E1,-4.138163980E0,2.038357997E1
3.891231792E0,-2.080680234E0,-1.660514754E1,-3.218156637E0,1.704161633E1
3.901220792E0,1.980720913E-1,-2.544498337E0,8.433385341E0,8.811111885E0
3.911210792E0,-2.507417634E0,7.875133536E0,1.295949746E1,1.537053824E1
3.921199792E0,-5.867889653E0,1.226896234E1,8.601362983E0,1.609170628E1
3.931189792E0,-7.221774430E0,1.346137334E1,4.886184829E0,1.603862214E1
3.941179792E0,-7.283437997E0,1.393774483E1,2.521814064E0,1.592698170E1
3.951168792E0,-4.593724059E0,1.034073305E1,2.184574585E0,1.152412370E1
3.961158792E0,-1.127028890E0,3.606497710E0,3.255591681E0,4.987574265E0
3.971147792E0,-1.026484994E0,-9.782309926E-1,7.511256044E0,7.643924036E0
3.981137792E0,-1.767861798E0,-3.082110055E0,1.066799470E1,1.124414730E1
3.991126792E0,-1.840566955E0,-5.623815177E0,9.331952698E0,1.104990158E1
4.001116792E0,-6.451516619E-1,-7.777211385E0,7.721564019E0,1.097833268E1
4.011105792E0,1.320805617E0,-8.449220186E0,7.087311859E0,1.110692751E1
4.021095792E0,2.867606703E0,-6.459463570E0,4.646487579E0,8.457995309E0
4.031085792E0,3.300549460E0,-1.097901278E0,2.955836509E0,4.564644940E0
4.041074792E0,2.365298426E0,2.765713708E0,4.769059253E-1,3.670319907E0
4.051064792E0,1.205127518E0,3.266945220E0,-1.139543393E0,3.663853511E0
4.061053792E0,-2.162446529E-2,1.610145435E0,-9.071955998E-2,1.612844065E0
4.071043792E0,-9.620646107E-1,3.463709289E-1,3.842591321E-1,1.092335212E0
4.081032792E0,-1.067956224E0,2.128924441E-1,2.486832511E-1,1.117003603E0
4.091022792E0,-1.136787308E0,1.277133055E0,2.143943746E-2,1.709916336E0
4.101011792E0,-7.493817893E-1,1.510513558E0,3.238082778E-1,1.716996237E0
4.111001792E0,-5.273659346E-1,9.056155908E-1,-1.546518373E-1,1.059326021E0
4.120990792E0,-5.714223291E-1,3.842743349E-1,-1.290731925E0,1.462935113E0
4.130980792E0,-4.080157846E-1,-9.018803895E-2,-1.662344114E0,1.714059135E0
4.140970792E0,4.415574601E-1,1.872278452E-2,-1.498164824E0,1.561992757E0
4.150959792E0,1.656924622E0,3.265874594E-1,-2.290335075E0,2.845644625E0
4.160949792E0,2.624054676E0,3.017841554E-1,-3.723039735E0,4.564839700E0
4.170938792E0,3.047938342E0,2.759067178E-2,-4.049189238E0,5.068197201E0
4.180928792E0,3.159015559E0,-1.876956224E-2,-2.954077667E0,4.325078781E0
4.190917792E0,3.143388583E0,3.966002655E-1,-6.084146293E-1,3.226197749E0
4.200907792E0,2.954051939E0,9.187607163E-1,2.040921507E0,3.706198148E0
4.210897792E0,2.600219378E0,9.557624817E-1,3.512167504E0,4.473247513E0
4.220886792E0,2.423685652E0,4.981810194E-1,3.113521298E0,3.976990236E0
4.230876708E0,2.531330992E0,-3.922394121E-1,8.945093894E-1,2.713233384E0
4.240865708E0,2.960809859E0,-1.163186610E0,-2.372382036E0,3.968323907E0
4.250855708E0,3.684261001E0,-7.016307950E-1,-4.951899932E0,6.211873939E0
4.260844708E0,4.472157522E0,2.630253017E-1,-5.909551064E0,7.415670502E0
4.270834708E0,4.803892871E0,-1.406857628E-1,-5.316694268E0,7.166897316E0
4.280823708E0,4.353404081E0,-1.296930558E0,-3.714483797E0,5.867839964E0
4.290813708E0,3.759213535E0,-1.993825693E0,-1.059567078E0,4.385169288E0
4.300802708E0,3.490633378E0,-2.222368210E0,9.440812066E-1,4.244376417E0
4.310792708E0,3.496428553E0,-2.723720174E0,6.482905935E-1,4.479279508E0
4.320782708E0,3.543591610E0,-3.368430079E0,-1.065008497E0,5.003759167E0
4.330771708E0,3.142420284E0,-3.667460781E0,-3.336084744E0,5.869798569E0
4.340761708E0,2.383796093E0,-3.126759979E0,-5.380127202E0,6.663698709E0
4.350750708E0,1.905024175E0,-2.322840332E0,-6.593032687E0,7.245190427E0
4.360740708E0,2.259705021E0,-2.437420031E0,-6.216245711E0,7.049042058E0
4.370729708E0,3.479971857E0,-3.427106888E0,-4.712404411E0,6.786900698E0
4.380719708E0,4.927687197E0,-3.495236306E0,-2.844847001E0,6.677719102E0
4.390708708E0,5.942238754E0,-2.372717081E0,-2.080916462E0,6.728313390E0
4.400698708E0,6.162698665E0,-2.051714882E0,-2.467693698E0,6.948230061E0
4.410688708E0,5.531266032E0,-2.450858687E0,-1.985661811E0,6.367453577E0
4.420677708E0,4.179738852E0,-3.489524161E0,-2.912975249E0,6.175145387E0
4.430667708E0,2.734382572E0,-6.124990556E0,-4.472736397E0,8.062116858E0
4.440656708E0,1.198902792E0,-9.538947056E0,-4.212520682E0,1.049639030E1
4.450646708E0,-1.664215516E0,-1.092895125E1,-2.733603138E0,1.138789598E1
4.460635708E0,-5.739736812E0,-9.187687270E0,1.345077116E0,1.091638257E1
4.470625708E0,-8.118651942E0,-7.183250635E0,5.808240452E0,1.229826232E1
4.480614708E0,-8.328834786E0,-5.774472781E0,7.125625155E0,1.238904995E1
4.490604708E0,-8.356852305E0,-3.887855787E0,4.915293438E0,1.044569350E1
4.500594708E0,-7.801677305E0,-2.403372279E0,5.943180156E-1,8.185082833E0
4.510583708E0,-5.720999410E0,-2.973622570E0,-3.074202865E0,7.143037777E0
4.520573708E0,-3.219375197E0,-2.714520165E0,-5.048034589E0,6.573861088E0
4.530562708E0,-1.994074492E0,-2.124178841E0,2.463315010E-2,2.913601830E0
4.540552708E0,-1.200846552E0,-3.103205055E0,1.009339934E1,1.062772903E1
4.550541708E0,-8.226013546E-1,-3.932473551E0,9.134399840E0,9.978891805E0
4.560531708E0,1.200689189E-1,-2.938657390E0,3.687367919E0,4.716651987E0
4.570520708E0,5.214625856E-1,-2.031363648E0,3.197798386E0,3.824169978E0
4.580510708E0,1.888552715E-1,-7.493078220E-1,4.373160945E0,4.440908148E0
4.590500708E0,-8.366526523E-1,1.440116590E-1,5.960029492E0,6.020189247E0
4.600489708E0,-2.005237558E0,9.213305676E-1,7.587456958E0,7.901856160E0
4.610479708E0,-2.537710304E0,2.078205693E0,7.922177310E0,8.574369121E0
4.620468708E0,-2.853773360E0,3.264818587E0,7.270818536E0,8.465687508E0
4.630458708E0,-3.041550844E0,3.715391577E0,5.723413725E0,7.470785151E0
4.640447708E0,-3.061669359E0,3.940618722E0,5.282507937E0,7.266855254E0
4.650437708E0,-3.279197475E0,4.431614683E0,5.981064851E0,8.134216713E0
4.660426708E0,-3.702815385E0,4.920141950E0,6.623627658E0,9.043842211E0
4.670416708E0,-4.275380589E0,5.402712657E0,7.195295899E0,9.961950929E0
4.680405708E0,-4.738671565E0,5.700547019E0,7.516612093E0,1.055702145E1
4.690395708E0,-4.937667809E0,5.873331072E0,7.259811738E0,1.056321200E1
4.700385708E0,-4.929368856E0,6.254303484E0,6.672656561E0,1.038938569E1
4.710374708E0,-4.687355524E0,6.773835611E0,6.063613502E0,1.022856585E1
4.720364708E0,-4.300446433E0,7.304200875E0,5.234898153E0,9.962396731E0
4.730353708E0,-3.794531594E0,7.776762319E0,4.319240262E0,9.671211849E0
4.740343708E0,-3.198036076E0,8.252702869E0,3.228035508E0,9.420974081E0
4.750332708E0,-2.506577097E0,8.363681853E0,2.041012723E0,8.966595553E0
4.760322708E0,-1.506721054E0,7.810971454E0,9.608086288E-1,8.012779581E0
4.770312708E0,4.006175950E-2,6.493915365E0,-8.614232120E-1,6.550922962E0
4.780301708E0,1.407406096E0,4.769218297E0,-4.296208664E0,6.571426327E0
4.790291708E0,1.936906849E0,2.226874074E0,-8.989632136E0,9.461715607E0
4.800280708E0,2.049639121E0,-1.814743019E0,-1.082644372E1,1.116719286E1
4.810270708E0,1.454088220E0,-8.259991423E0,-6.268067830E0,1.047045869E1
4.820259708E0,1.679334661E0,-1.605970173E1,-5.695418426E0,1.712226549E1
4.830249708E0,3.504388953E0,-2.038789144E1,-8.123104012E0,2.222457375E1
4.840238708E0,3.852086030E0,-1.761819403E1,-6.765455382E0,1.926163841E1
4.850228708E0,2.464777983E0,-9.547991529E0,-3.732174840E0,1.054364272E1
4.860218708E0,1.942854052E0,-1.640618200E0,-2.053938871E0,3.268787976E0
4.870207708E0,2.302488221E0,4.030172338E0,-1.176559484E0,4.788322598E0
4.880197708E0,1.963057644E0,7.638250551E0,-2.843348944E-1,7.891597629E0
4.890186708E0,1.133523173E0,9.683847492E0,-6.395699099E-1,9.770917393E0
4.900176708E0,-1.089747408E-1,8.587976952E0,-2.750220048E0,9.018255593E0
4.910165708E0,-7.149940217E-1,4.439694951E0,-2.102029588E0,4.963933530E0
4.920155708E0,-1.817397655E0,1.472534139E0,3.410194694E0,4.135301546E0
4.930144708E0,-4.981969823E0,-1.710366127E0,5.313578871E0,7.481944669E0
4.940134708E0,-7.745556899E0,-6.410931095E0,1.405626496E0,1.015231378E1
4.950124708E0,-7.982421173E0,-1.229328325E1,-3.817166458E0,1.514643921E1
4.960113708E0,-3.883829979E0,-1.977989796E1,-5.950001518E0,2.101739795E1
4.970103708E0,4.842820416E-1,-1.672886761E1,-6.232974011E-1,1.674747862E1
4.980092708E0,8.994876357E-1,-2.825643575E0,6.097637866E0,6.780451840E0
4.990082708E0,-1.527140701E0,7.554366395E0,1.029214035E1,1.285802331E1
5.000071708E0,-5.655041063E0,1.190380606E1,1.003165742E1,1.656243457E1
5.010061708E0,-8.171723610E0,1.254292545E1,5.337621453E0,1.589315099E1
5.020050708E0,-8.663772655E0,1.255329607E1,1.799933192E0,1.535857930E1
5.030040708E0,-6.011092057E0,8.515808862E0,3.588164350E-1,1.042981196E1
5.040030708E0,-2.298638852E0,2.746498588E0,2.468300931E0,4.349655682E0
5.050019708E0,-1.008481270E0,-7.885876626E-1,7.925152373E0,8.027885470E0
5.060009708E0,-7.831295791E-1,-2.705713674E0,1.172664946E1,1.206020257E1
5.069998708E0,-5.393893448E-1,-5.843062375E0,1.115666522E1,1.260569306E1
5.079988708E0,4.102935309E-1,-9.017921550E0,9.179052687E0,1.287424786E1
5.089977708E0,1.754383382E0,-1.005255771E1,6.687041881E0,1.220034043E1
5.099967708E0,2.279801316E0,-7.814106731E0,4.190292492E0,9.155124752E0
5.109956708E0,1.780180420E0,-3.377324864E0,2.423972750E0,4.522279233E0
5.119946708E0,6.369418788E-1,1.820489663E-1,8.742055909E-1,1.096846479E0
5.129936708E0,-4.991452253E-1,2.140347562E0,7.126047032E-1,2.310419681E0
5.139925708E0,-2.111884778E0,2.465674362E0,1.902413540E-1,3.252045379E0
5.149915708E0,-3.219462905E0,1.473296031E0,-1.510207895E-1,3.543776216E0
5.159904708E0,-3.344286633E0,1.200317599E0,1.964009571E-1,3.558593649E0
5.169894708E0,-2.770175133E0,1.300688564E0,3.739199758E-1,3.083095386E0
5.179883708E0,-1.861501156E0,1.327854143E0,1.866021931E-1,2.294167291E0
5.189873708E0,-1.068527497E0,1.312602850E0,-1.089688936E-2,1.692570825E0
5.199863708E0,-4.164813834E-1,1.655448493E0,8.986702681E-2,1.709398297E0
5.209852708E0,3.404281843E-2,1.740957005E0,-2.081889439E-1,1.753691205E0
5.219842708E0,4.891026324E-1,1.498116876E0,-5.215201807E-1,1.659987608E0
5.229832083E0,8.518305624E-1,1.526410384E0,-1.147886785E0,2.091216880E0
5.239822083E0,1.132094406E0,1.708980337E0,-1.555970982E0,2.573576739E0
5.249811083E0,1.162992482E0,2.019897843E0,-1.155672938E0,2.601560829E0
5.259801083E0,1.130807726E0,2.007642079E0,-8.814847165E-1,2.467056573E0
5.269790083E0,1.011631165E0,1.685812499E0,-5.649053514E-1,2.045600023E0
5.279780083E0,7.934521805E-1,1.019070870E0,1.505117163E-2,1.291626238E0
5.289770083E0,7.425776768E-1,1.443794489E-1,3.176581764E-1,8.204716621E-1
5.299759083E0,9.929560357E-1,-1.947274840E-1,1.352566230E-1,1.020869647E0
5.309749083E0,1.640593203E0,-3.374165028E-1,1.142711122E-1,1.678825137E0
5.319738083E0,2.568738554E0,-1.403916478E-2,-3.778108958E-1,2.596412126E0
5.329728083E0,3.619469174E0,7.446920300E-1,-1.806956282E0,4.113418812E0
5.339717083E0,4.764143791E0,1.013124837E0,-3.665221882E0,6.095682032E0
5.349707083E0,5.645597810E0,1.412073344E-1,-4.857805953E0,7.449227666E0
5.359697083E0,5.818691765E0,-1.213135865E0,-4.624199747E0,7.530743375E0
5.369686083E0,5.318215714E0,-2.356764123E0,-3.134387087E0,6.607733190E0
5.379676083E0,4.501692978E0,-2.984113644E0,-1.509180539E0,5.607833790E0
5.389665083E0,3.900867012E0,-3.266827691E0,-5.085719602E-1,5.113469668E0
5.399655083E0,3.659557684E0,-3.402640384E0,-5.616275485E-1,5.028493763E0
5.409644083E0,3.598546082E0,-3.331031873E0,-1.888708105E0,5.254762178E0
5.419634083E0,3.311813829E0,-3.157062004E0,-4.032048710E0,6.098570991E0
5.429623083E0,3.050331023E0,-3.124525173E0,-5.038850952E0,6.667622952E0
5.439613083E0,3.258018275E0,-3.383884270E0,-5.418026515E0,7.170799618E0
5.449603083E0,3.802576486E0,-3.971302571E0,-5.075633447E0,7.482839497E0
5.459592083E0,4.410095760E0,-3.777391359E0,-3.545088497E0,6.803328784E0
5.469582083E0,5.161667624E0,-2.471802828E0,-1.490280438E0,5.913844576E0
5.479571083E0,5.782306296E0,-1.745519003E0,-7.968633000E-1,6.092363565E0
5.489561083E0,5.578745424E0,-2.396211779E0,3.988689852E-1,6.084679766E0
5.499550083E0,4.089648462E0,-3.668631393E0,4.257685161E-1,5.510477263E0
5.509540083E0,2.203941587E0,-5.524507236E0,-1.160869943E0,6.060128525E0
5.519530083E0,3.398293929E-1,-7.607090154E0,-2.108295465E0,7.901152726E0
5.529519083E0,-1.743375998E0,-7.759059874E0,-2.432715361E0,8.316277654E0
5.539509083E0,-4.223019943E0,-6.553975625E0,-5.001521158E-1,7.812723345E0
5.549498083E0,-6.265931257E0,-5.267292897E0,2.324623733E0,8.509415049E0
5.559488083E0,-7.114865109E0,-4.604215134E0,3.922054982E0,9.338234191E0
5.569477083E0,-7.009477233E0,-3.628611295E0,3.928290453E0,8.816521814E0
5.579467083E0,-6.324128010E0,-3.308697263E0,2.719225420E0,7.637817721E0
5.589457083E0,-4.749381618E0,-3.142127046E0,9.448773050E-1,5.772554135E0
5.599446083E0,-3.099222516E0,-2.525599551E0,-3.413323832E-1,4.012523034E0
5.609436083E0,-1.845212568E0,-2.041688662E0,1.054375774E0,2.947034150E0
5.619425083E0,-4.268110746E-1,-2.698140360E0,6.281301248E0,6.849589365E0
5.629415083E0,1.222985353E-1,-3.580930175E0,8.324254078E0,9.062627864E0
5.639404083E0,1.970399847E-1,-3.422636107E0,3.587051625E0,4.961874851E0
5.649394083E0,-2.340318829E-2,-2.098731174E0,2.121667316E0,2.984408224E0
5.659383083E0,-4.654336882E-1,-1.239494528E0,2.713873463E0,3.019616595E0
5.669373083E0,-1.356857940E0,-4.480598563E-1,5.786747257E0,5.960559111E0
5.679363083E0,-2.497856852E0,4.876501840E-1,6.500544353E0,6.980986208E0
5.689352083E0,-3.209758281E0,1.536467010E0,5.925737911E0,6.912137795E0
5.699342083E0,-3.473182363E0,2.334862207E0,5.673351034E0,7.049928312E0
5.709331083E0,-3.484185653E0,2.786187149E0,5.668861542E0,7.213763212E0
5.719321083E0,-3.309432258E0,3.011271622E0,6.117671596E0,7.579314244E0
5.729310083E0,-3.194978859E0,3.110791233E0,6.351621033E0,7.760670187E0
5.739300083E0,-3.213962429E0,3.430490087E0,5.854267395E0,7.508013283E0
5.749290083E0,-3.410604292E0,3.772679088E0,5.319633079E0,7.359607681E0
5.759279083E0,-3.937412402E0,4.323814246E0,5.817636343E0,8.248847112E0
5.769269083E0,-4.439496438E0,4.828444744E0,6.189886463E0,9.018741691E0
5.779258083E0,-4.718081765E0,5.343556961E0,5.463317878E0,8.981188049E0
5.789248083E0,-4.680346466E0,6.101605786E0,4.693061821E0,9.008888137E0
5.799237083E0,-4.452151859E0,6.976343985E0,3.983593711E0,9.184772748E0
5.809227083E0,-3.965133174E0,7.788511130E0,3.223498653E0,9.315263296E0
5.819217083E0,-3.323225255E0,8.317086561E0,2.322347119E0,9.252624011E0
5.829206083E0,-2.827510006E0,8.362383771E0,8.502102989E-1,8.868321866E0
5.839196083E0,-2.250879818E0,7.913673704E0,-3.041744971E-1,8.233177611E0
5.849185083E0,-1.476209406E0,6.990704747E0,-8.753033325E-1,7.198284726E0
5.859175083E0,-8.237088172E-1,5.332508647E0,-1.025622968E0,5.492362621E0
5.869164083E0,-6.733968564E-1,2.547601454E0,-1.772471451E0,3.175750548E0
5.879154083E0,-3.579134057E-1,-8.179208046E-1,-3.001204763E0,3.131186114E0
5.889144083E0,1.492057407E-1,-4.851915468E0,-3.829189503E0,6.182720947E0
5.899133083E0,1.131098771E0,-8.725153801E0,-4.666799345E0,9.959252452E0
5.909123083E0,2.725830727E0,-1.088340612E1,-5.410383035E0,1.245595948E1
5.919112083E0,4.027874675E0,-1.035666906E1,-5.892183080E0,1.257784520E1
5.929102083E0,4.772184297E0,-7.456261811E0,-5.276714516E0,1.030598366E1
5.939091083E0,4.922349274E0,-3.865825818E0,-3.634847058E0,7.237834259E0
5.949081083E0,5.075756239E0,-5.817453325E-1,-1.286104731E0,5.268376828E0
5.959071083E0,4.836939872E0,2.025101280E0,3.292765939E-1,5.254088464E0
5.969060083E0,3.993832770E0,4.018669696E0,4.970308721E-1,5.687481517E0
5.979050083E0,3.381488666E0,5.413549302E0,-5.818070206E-1,6.409327660E0
5.989039083E0,3.014089395E0,4.994514440E0,-2.475472248E0,6.337023925E0
5.999029083E0,2.090954962E0,1.755936987E0,-2.935656014E0,4.009174926E0
6.009018083E0,1.065482414E0,-1.609120418E0,-2.298422652E0,3.001211086E0
6.019008083E0,-6.210112859E-1,-4.390963086E0,-2.720805922E-1,4.442998952E0
6.028998083E0,-2.909352022E0,-7.622075983E0,2.455772102E-1,8.162149205E0
6.038987083E0,-4.441692067E0,-1.201385768E1,-4.020413920E-2,1.280870880E1
6.048977083E0,-4.068372491E0,-1.866137238E1,-1.106203008E0,1.913170560E1
6.058966083E0,-8.159021996E-1,-2.295107690E1,-8.742388469E0,2.457329818E1
6.068956083E0,3.631932806E0,-1.100840556E1,-8.046243532E0,1.411091648E1
6.078945083E0,2.526997620E0,3.514688239E0,1.147952625E1,1.226858889E1
6.088935083E0,-4.054168142E0,1.133284417E1,2.229447902E1,2.533601056E1
6.098925083E0,-9.582508813E0,1.560890947E1,1.262366848E1,2.224453946E1
6.108914083E0,-1.221459259E1,1.666559021E1,2.930979996E0,2.086932709E1
6.118904083E0,-1.438769976E1,1.535104492E1,-1.930972803E-1,2.104038429E1
6.128893083E0,-1.292389610E1,1.051896203E1,-2.530876079E0,1.685470221E1
6.138883083E0,-6.706430663E0,2.559628007E0,-1.432977432E0,7.319927056E0
6.148872083E0,-2.948763717E0,-1.122832051E0,4.214310515E0,5.264634118E0
6.158862083E0,-2.734179089E0,-3.543389881E0,8.556760422E0,9.656577865E0
6.168852083E0,-2.731933758E0,-7.469558964E0,1.061772268E1,1.326626579E1
6.178841083E0,-1.666845155E0,-8.921231407E0,9.317662103E0,1.300713534E1
6.188831083E0,4.997673690E-2,-7.752099348E0,6.098554709E0,9.863564848E0
6.198820083E0,1.611897261E0,-5.191162734E0,1.274414685E0,5.583056161E0
6.208810083E0,2.508167540E0,-1.242744411E0,-6.287300491E-1,2.868905637E0
6.218799083E0,2.065737675E0,8.516878903E-1,3.398670709E-1,2.260122570E0
6.228788667E0,4.375926825E-1,9.572728175E-1,1.025531459E0,1.469548698E0
6.238778667E0,-1.012209455E0,1.368774127E0,2.032996191E0,2.651638004E0
6.248767667E0,-1.859975325E0,1.887346727E0,2.957066764E0,3.970620823E0
6.258757667E0,-2.299748508E0,1.755803086E0,3.934324780E0,4.883707520E0
6.268746667E0,-2.199371111E0,1.233761918E0,3.626733170E0,4.417306333E0
6.278736667E0,-1.761341568E0,6.905357033E-1,2.046543020E0,2.787023863E0
6.288725667E0,-1.062493244E0,6.223367035E-2,1.201193511E-1,1.071071231E0
6.298715667E0,-5.562257810E-1,-3.833241624E-1,-1.717510840E0,1.845580672E0
6.308705667E0,-1.314118229E-1,-2.490761840E-1,-2.413050005E0,2.429427575E0
6.318694667E0,2.973274807E-1,2.514472300E-1,-2.117221239E0,2.152732012E0
6.328684667E0,3.640750919E-1,8.593915969E-1,-1.829744636E0,2.054037493E0
6.338673667E0,2.753839036E-1,1.141201664E0,-1.383953061E0,1.814801258E0
6.348663667E0,1.503242765E-1,1.039891636E0,-1.549653212E-1,1.062066972E0
6.358652667E0,-2.840782017E-1,7.249266869E-1,9.005390382E-1,1.190457763E0
6.368642667E0,-8.340216976E-1,3.405254674E-1,1.417221233E0,1.679305156E0
6.378632667E0,-1.198500284E0,5.030418098E-2,1.650932688E0,2.040713645E0
6.388621667E0,-1.181792158E0,-5.095673025E-2,1.571184268E0,1.966684849E0
6.398611667E0,-8.071323994E-1,-9.875011683E-2,7.280941236E-1,1.091483096E0
6.408600667E0,-8.129365649E-3,-5.289391279E-3,-7.363905917E-1,7.364544574E-1
6.418590667E0,9.972090080E-1,4.311210573E-1,-2.627191415E0,2.842960763E0
6.428580667E0,1.848370941E0,9.369689459E-1,-3.917287455E0,4.431650589E0
6.438569667E0,2.208445989E0,8.205883044E-1,-3.795078017E0,4.466902283E0
6.448559667E0,1.814839498E0,2.071960866E-1,-2.555795742E0,3.141443060E0
6.458548667E0,1.147917483E0,-2.310246599E-1,-1.817621019E0,2.162136238E0
6.468538667E0,1.079450973E0,-5.549943209E-2,-1.199964427E0,1.614995113E0
6.478527667E0,1.598726700E0,3.921318233E-2,-5.434421231E-1,1.689021633E0
6.488517667E0,2.266408561E0,-9.364081979E-2,-7.003926471E-2,2.269423246E0
6.498506667E0,2.833580586E0,-3.362675250E-1,4.996130025E-1,2.896872095E0
6.508496667E0,3.406785475E0,-7.714254999E-1,1.016218014E0,3.637854261E0
6.518486667E0,3.924097415E0,-1.403485538E0,7.532207787E-1,4.235050616E0
6.528475667E0,4.120964102E0,-1.917806042E0,-6.019544792E-1,4.585049001E0
6.538465667E0,3.635468910E0,-2.140019533E0,-2.687018956E0,5.001638598E0
6.548454667E0,1.959183864E0,-1.963479813E0,-4.539821502E0,5.320115944E0
6.558444667E0,4.146506202E-1,-1.677129384E0,-5.088527727E0,5.373808011E0
6.568434667E0,-3.129649088E-1,-1.889364016E0,-4.372934951E0,4.773908619E0
6.578423667E0,-3.455403319E-1,-2.668737051E0,-3.409217332E0,4.343307310E0
6.588413667E0,3.001352406E-1,-3.440522155E0,-2.744753779E0,4.411456355E0
6.598402667E0,9.599119583E-1,-3.459382934E0,-2.737437158E0,4.514678664E0
6.608392667E0,9.681252497E-1,-2.742523651E0,-3.772126526E0,4.763154522E0
6.618381667E0,1.233888035E-1,-2.019119579E0,-4.447642486E0,4.886061026E0
6.628371667E0,-1.014065361E0,-1.646432086E0,-4.459373755E0,4.860563903E0
6.638361667E0,-1.978002835E0,-1.767153701E0,-3.323944463E0,4.252520924E0
6.648350667E0,-2.869396243E0,-2.650259850E0,-1.109533728E0,4.060588279E0
6.658340667E0,-3.806803146E0,-4.335315719E0,-6.851556802E-1,5.810004379E0
6.668329667E0,-5.073666444E0,-6.061245380E0,-1.938164878E0,8.138628253E0
6.678319667E0,-6.626972265E0,-6.759215818E0,-1.836808072E0,9.642490538E0
6.688308667E0,-8.029869574E0,-6.953904710E0,-7.951851491E-1,1.065213197E1
6.698298667E0,-9.268154898E0,-7.324265596E0,-7.005619240E-1,1.183361098E1
6.708288667E0,-1.003664276E1,-7.182787535E0,-1.670426720E0,1.245459594E1
6.718277667E0,-9.374719818E0,-6.307649387E0,-1.014400845E0,1.134463845E1
6.728267667E0,-7.715988114E0,-4.821015857E0,3.970738900E-1,9.106938791E0
6.738256667E0,-6.143765380E0,-3.888635806E0,1.608552654E0,7.446796836E0
6.748246667E0,-4.969474908E0,-3.515496324E0,2.697598908E0,6.658185574E0
6.758236667E0,-4.166846911E0,-3.088442590E0,3.282567226E0,6.138105441E0
6.768225667E0,-3.721164825E0,-3.609690290E0,4.229936906E0,6.690986316E0
6.778215667E0,-3.018636775E0,-3.853004043E0,5.799344498E0,7.588821038E0
6.788204667E0,-2.555822055E0,-2.739011228E0,2.629201688E0,4.576801328E0
6.798194667E0,-2.266593918E0,-1.798174934E0,1.896910725E0,3.459646135E0
6.808183667E0,-2.571303435E0,-9.640637738E-1,3.639311992E0,4.559124049E0
6.818173667E0,-3.130389638E0,-1.994070107E-1,4.115243187E0,5.174391648E0
6.828163667E0,-3.254729509E0,4.552022302E-1,4.804452449E0,5.820930903E0
6.838152667E0,-3.115353523E0,1.003599722E0,5.396701720E0,6.311658215E0
6.848142667E0,-2.855164705E0,1.595954243E0,4.901520030E0,5.892701761E0
6.858131667E0,-2.606946308E0,2.487358761E0,4.120171220E0,5.473475453E0
6.868121667E0,-2.578289689E0,3.663115715E0,3.846411307E0,5.904309816E0
6.878110667E0,-2.864333139E0,4.877590592E0,4.218983902E0,7.056565700E0
6.888100667E0,-3.345986711E0,5.754246093E0,4.631828025E0,8.109303671E0
6.898090667E0,-3.784933682E0,6.183755658E0,4.634767420E0,8.604976819E0
6.908079667E0,-4.061087152E0,6.239925181E0,4.276986527E0,8.586134688E0
6.918069667E0,-4.236946841E0,6.306848903E0,4.058289552E0,8.613813076E0
6.928058667E0,-4.453612493E0,6.482498091E0,3.870707073E0,8.765832476E0
6.938048667E0,-4.527763959E0,6.917135664E0,3.599671378E0,9.016931091E0
6.948037667E0,-4.396511801E0,7.323006690E0,3.109278850E0,9.089739159E0
6.958027667E0,-4.082519829E0,7.436298832E0,2.515399961E0,8.848318792E0
6.968017667E0,-3.595379230E0,7.206490393E0,2.168632298E0,8.340456920E0
6.978006667E0,-3.014248147E0,6.671010570E0,1.985543989E0,7.584883575E0
6.987996667E0,-2.420683253E0,5.881887302E0,2.006810313E0,6.669602183E0
6.997985667E0,-1.809099872E0,4.831866535E0,2.268469412E0,5.636109477E0
7.007975667E0,-1.121175535E0,3.597192451E0,2.275132022E0,4.401483140E0
7.017965667E0,-4.175121014E-1,2.238185513E0,1.689225519E0,2.835008571E0
7.027954667E0,2.415842928E-1,7.920784503E-1,1.097686100E-1,8.353444737E-1
7.037944667E0,1.006887027E0,-1.102405972E0,-2.745259855E0,3.124991534E0
7.047933667E0,2.087341090E0,-3.735094939E0,-6.860904161E0,8.085785858E0
7.057923667E0,3.786952141E0,-7.296656798E0,-1.003957455E1,1.297594945E1
7.067912667E0,5.847946554E0,-1.068937913E1,-9.775969205E0,1.562148774E1
7.077902667E0,7.425382665E0,-1.145022351E1,-7.419219700E0,1.553347183E1
7.087892667E0,8.026944212E0,-8.593277453E0,-5.687759743E0,1.306242174E1
7.097881667E0,6.862088807E0,-4.710275440E0,-5.975111800E0,1.024582444E1
7.107871667E0,3.798248962E0,-2.252649186E0,-6.513337476E0,7.869224143E0
7.117860667E0,7.338790664E-1,-6.000482869E-1,-4.316792325E0,4.419652973E0
7.127850667E0,-2.282880314E0,6.355777234E-1,-1.310439234E0,2.707905566E0
7.137839667E0,-4.520459032E0,1.402227218E0,2.785183766E-1,4.741135256E0
7.147829667E0,-5.831909396E0,1.447224466E0,-1.776430893E-1,6.011421040E0
7.157819667E0,-6.413338394E0,5.074389160E-2,-1.553698462E0,6.599050175E0
7.167808667E0,-5.860608115E0,-2.395384398E0,-2.806969907E0,6.925581127E0
7.177798667E0,-4.975167173E0,-4.909809335E0,-2.709503547E0,7.496660961E0
7.187787667E0,-4.591698584E0,-6.992001075E0,-1.386776973E0,8.479087527E0
7.197777667E0,-4.435045829E0,-8.365994427E0,-1.389564487E-1,9.469889289E0
7.207767667E0,-4.113423826E0,-8.498373635E0,-1.188176294E0,9.516006143E0
7.217756667E0,-3.363385394E0,-5.752015965E0,-3.049159241E0,7.327715950E0
7.227747167E0,-2.843458579E0,1.920026815E-1,-7.401076667E-1,2.944466179E0
7.237736167E0,-4.320191311E0,5.348891961E0,4.847759267E0,8.412815705E0
7.247726167E0,-7.598343304E0,7.936321725E0,9.525825319E0,1.454171144E1
7.257715167E0,-1.033810298E1,8.397976942E0,9.438308873E0,1.632433963E1
7.267705167E0,-1.117188435E1,6.843418647E0,5.248818619E0,1.411359188E1
7.277695167E0,-1.155230771E1,5.875642476E0,2.484416442E0,1.319664022E1
7.287684167E0,-1.086542243E1,4.479420349E0,1.905542092E0,1.190603636E1
7.297674167E0,-7.140467727E0,9.776211280E-1,1.185126532E0,7.303872078E0
7.307663167E0,-3.503063389E0,-1.937260898E0,1.692561940E0,4.346170592E0
7.317653167E0,-1.665831101E0,-4.821370198E0,3.602946696E0,6.245144413E0
7.327642167E0,-2.373927163E-1,-7.115573791E0,6.015502027E0,9.320622850E0
7.337632167E0,6.503334644E-1,-6.697278017E0,6.979387461E0,9.694757128E0
7.347622167E0,8.022037813E-1,-4.437263094E0,6.370840246E0,7.805154714E0
7.357611167E0,8.372024368E-1,-2.191041752E0,5.174565997E0,5.681347124E0
7.367601167E0,9.571839398E-1,-4.183413827E-1,3.564505346E0,3.714419062E0
7.377590167E0,6.912204123E-1,1.156825424E0,4.759107292E-1,1.429168199E0
7.387580167E0,-1.123627272E-1,1.568412688E0,-5.686366059E-1,1.672091903E0
7.397570167E0,-7.231098108E-1,7.241390669E-1,1.697826773E-1,1.037348227E0
7.407559167E0,-1.092273040E0,-4.076187587E-1,1.410279857E0,1.829782151E0
7.417549167E0,-1.451610170E0,-7.469011080E-1,1.521232382E0,2.231407921E0
7.427538167E0,-1.726274062E0,-1.652522546E-1,1.068301064E0,2.036810646E0
7.437528167E0,-1.851036395E0,1.391216326E-1,1.087974313E0,2.151599096E0
7.447517167E0,-1.572092487E0,4.212404323E-1,1.697352564E0,2.351579047E0
7.457507167E0,-1.591210105E0,2.199786848E-1,8.877526394E-1,1.835332386E0
7.467497167E0,-1.848237771E0,-9.903008151E-1,-1.507982299E-1,2.102241344E0
7.477486167E0,-2.111106660E0,-2.142077753E0,-9.563565588E-1,3.155928753E0
7.487476167E0,-2.290303354E0,-1.869779937E0,-1.198665175E0,3.190354944E0
7.497465167E0,-1.988352115E0,-4.178443694E-1,-1.016164366E0,2.271723589E0
7.507455167E0,-1.469514344E0,5.060262287E-1,-1.058346179E0,1.880327521E0
7.517444167E0,-1.182070924E0,5.520444006E-1,-1.176817347E0,1.756970050E0
7.527434167E0,-1.053275620E0,3.397068572E-1,-6.234190232E-1,1.270213194E0
7.537424167E0,-1.036757528E0,3.447553432E-1,6.460500866E-1,1.269292375E0
7.547413167E0,-9.079113539E-1,4.429868120E-1,1.523874739E0,1.828314678E0
7.557403167E0,-4.880980808E-1,3.824441564E-1,1.231141781E0,1.378482264E0
7.567392167E0,1.177599996E-1,-7.789543748E-2,-9.640579265E-1,9.743422409E-1
7.577382167E0,8.483326118E-1,-9.390768671E-1,-2.875146980E0,3.141337890E0
7.587372167E0,1.084655580E0,-9.753155708E-1,-3.164695544E0,3.484683067E0
7.597361167E0,1.058587231E0,1.001747324E0,-2.416529391E0,2.822006188E0
7.607351167E0,1.095275732E0,2.124877583E0,-4.921484470E-1,2.440685102E0
7.617340167E0,1.245564084E0,8.584636438E-1,-3.334102830E-1,1.549048783E0
7.627330167E0,1.641088901E0,-3.026314169E-1,-2.372820285E0,2.900867915E0
7.637320167E0,2.220158255E0,-4.239611417E-1,-2.381182680E0,3.283119962E0
7.647309167E0,2.459103261E0,-3.311944807E-1,-1.720979993E0,3.019710378E0
7.657299167E0,2.413132159E0,-6.353643000E-2,-2.072231300E0,3.181412619E0
7.667288167E0,2.441907038E0,-1.087137723E-1,-3.355302203E0,4.151238555E0
7.677278167E0,2.346283427E0,-4.450327528E-1,-4.037376693E0,4.690789980E0
7.687267167E0,1.528188668E0,-7.751916915E-1,-4.366646563E0,4.690829880E0
7.697257167E0,5.789136721E-1,-8.266296476E-1,-5.083371652E0,5.182578988E0
7.707247167E0,1.452170625E-2,-5.713659400E-1,-5.387308753E0,5.417542387E0
7.717236167E0,-3.384147687E-1,-2.598257053E-1,-5.337028545E0,5.354055252E0
7.727226167E0,-4.817371872E-1,-7.423624992E-3,-4.898872118E0,4.922506867E0
7.737215167E0,-4.986958668E-1,-1.727478004E-1,-4.069313600E0,4.103395246E0
7.747205167E0,-4.967584649E-1,-9.671136814E-1,-3.314741237E0,3.488493560E0
7.757194167E0,-4.111191943E-1,-2.252584866E0,-3.046016947E0,3.810692432E0
7.767184167E0,-3.005419144E-1,-3.507375711E0,-3.555618163E0,5.003441849E0
7.777174167E0,-4.083932224E-1,-4.111215917E0,-4.422578981E0,6.052114191E0
7.787163167E0,-8.527837316E-1,-3.909778168E0,-5.380804310E0,6.705718488E0
7.797153167E0,-1.509279796E0,-3.257758074E0,-6.231791704E0,7.192088779E0
7.807142167E0,-2.308739771E0,-2.930437374E0,-6.118182058E0,7.165884051E0
7.817132167E0,-3.458021995E0,-3.645114477E0,-4.968278568E0,7.066014972E0
7.827121167E0,-4.613606932E0,-5.541882237E0,-3.874515949E0,8.185945363E0
7.837111167E0,-5.983590263E0,-7.073295498E0,-4.288767790E0,1.020923067E1
7.847101167E0,-7.532005473E0,-7.752785811E0,-5.022339000E0,1.191892123E1
7.857090167E0,-8.377944381E0,-8.644399660E0,-4.294885147E0,1.278130025E1
7.867080167E0,-8.842550104E0,-8.390287853E0,-2.282667621E0,1.240153999E1
7.877069167E0,-8.152631282E0,-7.301486013E0,1.926847007E0,1.111259800E1
7.887059167E0,-6.648035105E0,-5.281324461E0,4.905645533E0,9.805820563E0
7.897049167E0,-4.110820353E0,-2.192656753E0,2.523209209E0,5.298412246E0
7.907038167E0,-1.707802854E0,-1.276981612E0,-4.040905122E-1,2.170382862E0
7.917028167E0,-5.276293516E-1,-2.513413954E0,2.422903733E0,3.530737166E0
7.927017167E0,2.126354590E-2,-4.202586848E0,4.594115238E0,6.226402105E0
7.937007167E0,7.580036549E-1,-4.989153712E0,4.326734930E0,6.647319720E0
7.946996167E0,8.956253305E-1,-4.493177678E0,3.277868403E0,5.633401428E0
7.956986167E0,3.792773044E-1,-3.584102874E0,3.256798546E0,4.857610674E0
7.966976167E0,1.557569611E-1,-2.407889253E0,3.820914524E0,4.519024085E0
7.976965167E0,-2.034768189E-1,-1.496009540E0,3.725286820E0,4.019603121E0
7.986955167E0,-7.911104438E-1,-1.738646185E-1,3.717107735E0,3.804336283E0
7.996944167E0,-1.184341544E0,1.252971776E0,3.745583675E0,4.123348182E0
8.006934167E0,-1.395797181E0,2.591950246E0,3.961001531E0,4.935178718E0
8.016923167E0,-1.484770899E0,3.702628859E0,3.901224569E0,5.579745355E0
8.026913167E0,-1.771118698E0,4.545597382E0,3.520874300E0,6.016300594E0
8.036903167E0,-1.861816906E0,5.219608853E0,3.869778535E0,6.759131948E0
8.046892167E0,-1.606360533E0,5.595035766E0,4.183413535E0,7.168386722E0
8.056882167E0,-1.386725664E0,5.726770027E0,3.739826506E0,6.978911470E0
8.066871167E0,-1.224903240E0,5.783642385E0,3.388896211E0,6.814361651E0
8.076861167E0,-1.335480666E0,5.955537661E0,2.948092457E0,6.778140348E0
8.086851167E0,-1.551022630E0,6.046892220E0,2.564808348E0,6.748986485E0
8.096840167E0,-1.732557187E0,6.113635848E0,2.186631782E0,6.720093469E0
8.106830167E0,-1.755330777E0,6.261326575E0,1.822459297E0,6.753277316E0
8.116819167E0,-1.557308387E0,6.483549421E0,1.659975699E0,6.871473046E0
8.126809167E0,-1.248711494E0,6.763297759E0,1.560340899E0,7.052385461E0
8.136798167E0,-9.609638724E-1,6.930166769E0,1.376918714E0,7.130677959E0
8.146788167E0,-7.434195296E-1,6.909282854E0,1.230432221E0,7.057253403E0
8.156778167E0,-4.708436783E-1,6.727023972E0,1.049583688E0,6.824673707E0
8.166767167E0,-1.935962670E-1,6.366926120E0,6.331932288E-1,6.401262485E0
8.176757167E0,6.751443699E-2,5.592950065E0,-5.308119911E-1,5.618488230E0
8.186746167E0,2.930053651E-1,4.468471438E0,-1.802332743E0,4.827161946E0
8.196736167E0,6.054121571E-1,2.963964139E0,-3.536182896E0,4.653621898E0
8.206726167E0,1.628390502E0,9.010910153E-1,-5.628823317E0,5.928513522E0
8.216715167E0,3.506729301E0,-1.770052165E0,-7.263684933E0,8.257805633E0
8.226705167E0,5.441844563E0,-4.615918336E0,-7.033275400E0,1.001934814E1
8.236697708E0,6.216865516E0,-6.961576257E0,-5.986325591E0,1.108823949E1
8.246687708E0,6.078887014E0,-8.583592710E0,-6.287177700E0,1.225395995E1
8.256676708E0,4.884433296E0,-8.946962664E0,-7.192623137E0,1.247556240E1
8.266666708E0,3.138979197E0,-7.403488936E0,-7.167485372E0,1.077207897E1
8.276656708E0,1.308872327E0,-4.250399530E0,-6.575496887E0,7.938274513E0
8.286645708E0,2.231063604E-1,-6.442286789E-1,-5.602623113E0,5.643951877E0
8.296635708E0,-1.274517596E-1,2.747952790E0,-3.728197564E0,4.633243525E0
8.306624708E0,-4.228795530E-1,5.119457744E0,-2.080282331E0,5.542134001E0
8.316614708E0,-1.300715753E0,4.610426631E0,-2.198202252E0,5.270672474E0
8.326603708E0,-2.150829573E0,1.592630101E0,-2.896610062E0,3.943715043E0
8.336593708E0,-2.627488453E0,-5.255518359E-1,-1.781074605E0,3.217472153E0
8.346583708E0,-4.194447816E0,-2.004812611E0,-5.263242531E-1,4.678641181E0
8.356572708E0,-5.569884553E0,-4.084180146E0,-3.678038979E-1,6.916604738E0
8.366562708E0,-5.880845329E0,-6.141791945E0,-6.958104765E-1,8.531711569E0
8.376551708E0,-5.679887052E0,-8.542987306E0,-1.520462011E0,1.037089937E1
8.386541708E0,-4.515119355E0,-1.109315276E1,-4.344765404E0,1.274053874E1
8.396531708E0,-2.144074577E0,-7.906561736E0,-6.221266716E0,1.028663861E1
8.406520708E0,-8.010136537E-1,8.291363490E-1,-3.173955195E0,3.376844909E0
8.416510708E0,-1.744778745E0,6.512157508E0,1.932857945E0,7.013443385E0
8.426499708E0,-4.226329467E0,9.167351239E0,8.100927862E0,1.294323073E1
8.436489708E0,-6.609905997E0,9.590117210E0,1.022464477E1,1.549853432E1
8.446478708E0,-7.149492320E0,8.983106058E0,5.767637386E0,1.284823240E1
8.456468708E0,-7.250087818E0,7.936158003E0,1.261501694E0,1.082302008E1
8.466458708E0,-5.196930428E0,5.871466395E0,-1.037331140E0,7.909377939E0
8.476447708E0,-6.743301451E-3,1.540156603E0,-2.427693772E0,2.875034763E0
8.486437708E0,3.456587088E0,-2.209328919E0,9.593296487E-2,4.103453631E0
8.496426708E0,4.499278078E0,-4.533759109E0,3.688110223E0,7.375678402E0
8.506416708E0,4.664000575E0,-6.096792358E0,5.506676152E0,9.447076832E0
8.516406708E0,3.984715792E0,-5.720553267E0,6.366897469E0,9.441402067E0
8.526395708E0,3.202166549E0,-3.561089988E0,5.914379110E0,7.610197945E0
8.536385708E0,2.525159841E0,-1.121958477E0,4.675573969E0,5.431041795E0
8.546374708E0,1.982461337E0,6.365489459E-1,3.075872830E0,3.714342631E0
8.556364708E0,1.384490858E0,1.391193522E0,1.707174132E0,2.601283888E0
8.566353708E0,-3.117425483E-1,1.041851038E0,3.276113069E-1,1.135766776E0
8.576343708E0,-2.066545468E0,3.138750279E-1,-1.211541914E0,2.415980445E0
8.586333708E0,-2.542291013E0,-1.472340596E-1,-2.233739290E0,3.387405007E0
8.596322708E0,-2.054281518E0,-8.512142658E-2,-1.963316091E0,2.842873245E0
8.606312708E0,-1.431234670E0,-5.382981813E-1,-8.055019033E-1,1.728302904E0
8.616301708E0,-1.124168432E0,-1.303917396E0,-5.724242860E-1,1.814283551E0
8.626291708E0,-1.050457847E0,-1.107775471E0,-5.846269134E-1,1.634752828E0
8.636281708E0,-7.855479875E-1,-4.886202371E-1,-3.054355954E-1,9.742311223E-1
8.646270708E0,-5.702850456E-1,3.508808863E-1,-5.705872370E-1,8.797228113E-1
8.656260708E0,-3.575999218E-1,7.932180727E-1,-7.182392263E-1,1.128246516E0
8.666249708E0,-4.533894472E-3,6.073602301E-1,-7.044183089E-1,9.301140571E-1
8.676239708E0,5.205554632E-1,4.763100940E-1,-8.018399383E-1,1.068080794E0
8.686228708E0,1.249170501E0,5.422719491E-1,-9.957292239E-1,1.686998072E0
8.696218708E0,1.849548863E0,8.174460107E-1,-1.125267270E0,2.314146799E0
8.706208708E0,2.193582660E0,1.070001873E0,-1.299066985E0,2.764829818E0
8.716197708E0,2.209874464E0,9.280267990E-1,-1.777929534E0,2.984260765E0
8.726187708E0,2.010009032E0,2.845442247E-1,-2.299281900E0,3.067213553E0
8.736176708E0,1.718761559E0,-1.849556172E-1,-2.551298649E0,3.081797312E0
8.746166708E0,1.580119691E0,-1.800316769E-1,-2.448974129E0,2.920045192E0
8.756155708E0,1.925204232E0,2.087292266E-1,-2.200979680E0,2.931602084E0
8.766145708E0,2.734961739E0,8.667549956E-1,-2.450335361E0,3.772985995E0
8.776135708E0,3.481184278E0,1.018834058E0,-2.933994820E0,4.665296605E0
8.786124708E0,4.007734233E0,9.283828944E-1,-3.149348942E0,5.180948489E0
8.796114708E0,4.425145616E0,6.722099447E-1,-3.030510716E0,5.405346902E0
8.806103708E0,4.581122140E0,-8.306145251E-2,-2.899168511E0,5.422062092E0
8.816093708E0,4.418403484E0,-1.225824907E0,-2.426838325E0,5.187916760E0
8.826083708E0,4.146219104E0,-2.429429226E0,-2.234164090E0,5.299504543E0
8.836072708E0,3.992376229E0,-3.143541487E0,-2.468908457E0,5.649462807E0
8.846062708E0,3.875977753E0,-3.419591462E0,-2.607502378E0,5.789289936E0
8.856051708E0,3.522430244E0,-3.510603374E0,-3.079680537E0,5.849468615E0
8.866041708E0,2.736178252E0,-3.017610004E0,-4.104146633E0,5.782444219E0
8.876030708E0,2.101112891E0,-2.189449555E0,-5.299328038E0,6.106655581E0
8.886020708E0,1.921682600E0,-1.431422365E0,-6.278792793E0,6.720496480E0
8.896010708E0,2.594910399E0,-1.619825501E0,-6.332643310E0,7.032763747E0
8.905999708E0,3.934247012E0,-2.817016593E0,-5.635605503E0,7.427915685E0
8.915989708E0,4.963731773E0,-3.600486773E0,-4.043889906E0,7.345419232E0
8.925978708E0,5.358072090E0,-3.186615002E0,-2.780617383E0,6.826073888E0
8.935968708E0,5.422988462E0,-3.009971201E0,-2.893121613E0,6.843893860E0
8.945958708E0,5.016170772E0,-3.350353412E0,-3.547742549E0,6.998093626E0
8.955947708E0,4.365283869E0,-4.094526794E0,-3.382023686E0,6.874513593E0
8.965937708E0,3.815373702E0,-5.025719860E0,-3.489915340E0,7.210717418E0
8.975926708E0,3.416088395E0,-6.316969264E0,-3.508964399E0,7.992908842E0
8.985916708E0,2.781520194E0,-7.361582526E0,-3.011991414E0,8.426259203E0
8.995905708E0,5.513509573E-1,-7.136702120E0,-2.060457054E0,7.448623249E0
9.005895708E0,-2.707260262E0,-6.215842254E0,1.966132110E-1,6.782669814E0
9.015885708E0,-5.208128430E0,-5.696681424E0,2.930093558E0,8.256041985E0
9.025874708E0,-6.162352509E0,-5.115934796E0,4.695783116E0,9.284274681E0
9.035864708E0,-5.877221224E0,-4.065139858E0,4.465543152E0,8.426634383E0
9.045853708E0,-4.602239652E0,-2.815882233E0,2.394659343E0,5.902897249E0
9.055843708E0,-2.542291013E0,-2.128960694E0,-5.213179036E-1,3.356708148E0
9.065832708E0,-1.100022355E0,-1.867423509E0,-1.086027921E0,2.424206342E0
9.075822708E0,7.601090180E-1,-2.993627649E0,2.282264163E0,3.840351798E0
9.085812708E0,2.257374028E0,-3.662621040E0,3.927167788E0,5.825219071E0
9.095801708E0,2.282006886E0,-3.637100283E0,4.182884070E0,5.994378453E0
9.105791708E0,1.964461415E0,-3.290663865E0,3.807561822E0,5.402323977E0
9.115780708E0,1.317204463E0,-2.122810593E0,1.984248977E0,3.190391263E0
9.125770708E0,-2.386082062E-1,-7.904844993E-1,3.014953029E0,3.125978469E0
9.135760708E0,-1.719936996E0,7.547118187E-1,5.100746069E0,5.435566544E0
9.145749708E0,-2.579632502E0,2.127170861E0,6.366705680E0,7.191265600E0
9.155739708E0,-3.149834261E0,3.136141251E0,6.346048636E0,7.747849451E0
9.165728708E0,-3.370443276E0,3.729213225E0,5.786831456E0,7.665137798E0
9.175718708E0,-3.531096695E0,3.806613988E0,5.133401599E0,7.301422183E0
9.185707708E0,-3.660140651E0,3.494552182E0,4.723767305E0,6.922608041E0
9.195697708E0,-3.657581910E0,3.268246225E0,4.068174270E0,6.372548996E0
9.205687708E0,-3.631283473E0,3.381707352E0,4.086553531E0,6.428225574E0
9.215676708E0,-3.833484283E0,3.734138335E0,4.032273243E0,6.700643130E0
9.225666708E0,-4.202242447E0,4.194980205E0,3.858964987E0,7.081547237E0
9.235651958E0,-4.577137848E0,4.569754568E0,3.907746845E0,7.556674738E0
9.245641958E0,-4.875121313E0,5.011810504E0,3.918818256E0,8.015122511E0
9.255630958E0,-4.922540478E0,5.620500391E0,3.705444001E0,8.339768860E0
9.265620958E0,-4.670730428E0,6.149011502E0,3.430859631E0,8.449666443E0
9.275610958E0,-4.103801063E0,6.572140585E0,3.243286800E0,8.399590722E0
9.285599958E0,-3.453940346E0,6.965047749E0,2.935302550E0,8.310089959E0
9.295589958E0,-2.888102948E0,7.245390165E0,2.390956593E0,8.158032282E0
9.305578958E0,-2.324369963E0,7.287683660E0,1.656766455E0,7.826742870E0
9.315568958E0,-1.764346891E0,7.103369483E0,8.216510358E-1,7.365180811E0
9.325558958E0,-1.119736316E0,6.371699202E0,-8.914109498E-2,6.469954117E0
9.335547958E0,-2.677169614E-1,5.098078569E0,-1.490592972E0,5.318265213E0
9.345537958E0,4.510707338E-1,3.251364144E0,-3.731192800E0,4.969570738E0
9.355526958E0,9.315862915E-1,4.440235233E-1,-6.058007777E0,6.145280151E0
9.365516958E0,1.655290033E0,-3.903410550E0,-7.438372840E0,8.561891702E0
9.375505958E0,2.919502496E0,-9.025979598E0,-6.444749637E0,1.146850472E1
9.385495958E0,4.517302997E0,-1.258962014E1,-5.063487611E0,1.430186940E1
9.395485958E0,5.685864075E0,-1.292559414E1,-6.034394966E0,1.535623511E1
9.405474958E0,5.168037581E0,-1.018407328E1,-5.883365479E0,1.284670971E1
9.415464958E0,3.841396735E0,-5.992834711E0,-4.184517489E0,8.257153467E0
9.425453958E0,3.190063689E0,-1.724795301E0,-2.783454745E0,4.571547385E0
9.435443958E0,2.801030890E0,2.116429526E0,-2.155268487E0,4.119493930E0
9.445433958E0,2.146778622E0,5.133110408E0,-1.271537855E0,5.707389020E0
9.455422958E0,9.813280434E-1,6.648343838E0,-1.189592928E0,6.824852515E0
9.465412958E0,-3.991545486E-1,4.318343591E0,-3.174726150E0,5.374597832E0
9.475401958E0,-9.434749234E-1,6.862257206E-1,-3.621440270E0,3.804718163E0
9.485391958E0,-1.715119621E0,-7.064255118E-1,1.852889085E-1,1.864136341E0
9.495380958E0,-3.914385189E0,-2.657759489E0,1.438131607E0,4.945130881E0
9.505370958E0,-5.634115632E0,-5.878915747E0,-3.604495624E-1,8.150756603E0
9.515360958E0,-4.554715822E0,-1.037357803E1,-2.637818145E0,1.163248219E1
9.525349958E0,-1.555121820E0,-1.468536514E1,-6.417574117E0,1.610166484E1
9.535339958E0,1.700205128E-1,-1.178243424E1,-3.259879737E0,1.222626188E1
9.545328958E0,-7.310041367E-1,-1.218987758E0,5.728987291E0,5.902676815E0
9.555318958E0,-3.547191741E0,6.485694180E0,8.144217138E0,1.099886681E1
9.565307958E0,-5.661406927E0,1.008989335E1,6.561415622E0,1.330073874E1
9.575297958E0,-6.320247797E0,1.178271724E1,4.403728727E0,1.407731454E1
9.585287958E0,-6.548026668E0,1.144167254E1,2.943151560E0,1.350742999E1
9.595276958E0,-5.281260141E0,9.038089766E0,1.600069660E0,1.058957026E1
9.605266958E0,-1.571188069E0,4.158553805E0,1.387150318E0,4.656864579E0
9.615255958E0,9.195381036E-1,-7.206301528E-1,4.293344990E0,4.449457197E0
9.625245958E0,1.413204488E0,-3.400913701E0,7.360033014E0,8.230033225E0
9.635235958E0,1.988189270E0,-5.233283737E0,7.493783394E0,9.353980158E0
9.645224958E0,2.738558069E0,-6.487278775E0,5.561124254E0,8.972769315E0
9.655214958E0,3.744860082E0,-6.611739099E0,3.852768985E0,8.519559836E0
9.665203958E0,4.451522406E0,-5.009107921E0,3.263872508E0,7.453863269E0
9.675193958E0,3.969974376E0,-1.809123260E0,1.618504761E0,4.653297882E0
9.685182958E0,2.594507234E0,6.083940178E-1,-3.258138363E-1,2.684728240E0
9.695172958E0,1.047285148E0,2.041748303E0,-1.114296870E0,2.550921369E0
9.705162958E0,6.238893220E-2,2.359814031E0,-4.658757011E-1,2.406170153E0
9.715151958E0,-2.679337469E-1,2.056003230E0,5.775622344E-1,2.152328021E0
9.725141958E0,-2.912577419E-1,1.394222964E0,1.479237971E0,2.053493054E0
9.735130958E0,-3.711051993E-1,6.432691509E-1,1.295461738E0,1.493229849E0
9.745120958E0,-4.995574540E-1,4.703079271E-1,5.353605402E-1,8.702632384E-1
9.755110958E0,-7.413160669E-1,7.047853678E-1,1.957787768E-1,1.041441912E0
9.765099958E0,-1.293906378E0,6.013247341E-1,-6.957040572E-1,1.587384417E0
9.775089958E0,-1.949462576E0,6.325781018E-1,-1.894858060E0,2.791244607E0
9.785078958E0,-2.023248298E0,3.985216606E-1,-2.775838746E0,3.457981193E0
9.795068958E0,-1.492863446E0,7.207734096E-1,-2.953435643E0,3.386877274E0
9.805057958E0,-6.082106345E-1,1.313485195E0,-2.498371407E0,2.887390382E0
9.815047958E0,2.540056792E-1,1.687430423E0,-1.994495199E0,2.624871696E0
9.825037958E0,1.010636335E0,1.621194919E0,-1.325570220E0,2.325251637E0
9.835026958E0,1.608505876E0,9.340242881E-1,-1.290780457E0,2.264024450E0
9.845016958E0,1.846111577E0,-1.556253988E-1,-1.159271899E0,2.185465295E0
9.855005958E0,1.950027270E0,-1.020553724E0,-2.861944552E-1,2.219469199E0
9.864995958E0,2.218559188E0,-1.520007682E0,1.238415425E-1,2.692167333E0
9.874984958E0,2.840822070E0,-1.375738746E0,-3.035582006E-2,3.156556447E0
9.884974958E0,3.743201227E0,-4.750751621E-1,-6.499881864E-1,3.828803531E0
9.894964958E0,4.536507008E0,2.687719452E-1,-1.937238679E0,4.940144521E0
9.904953958E0,5.329785014E0,1.735804439E-1,-3.764756695E0,6.527643636E0
9.914943958E0,5.880378136E0,-6.920045239E-1,-5.138272914E0,7.839615158E0
9.924932958E0,5.743971366E0,-1.576062600E0,-5.114492873E0,7.850810004E0
9.934922958E0,4.962845335E0,-2.103115416E0,-3.794181054E0,6.591565682E0
9.944912958E0,4.012356165E0,-2.266012412E0,-1.904985437E0,4.986259496E0
9.954901958E0,3.227919733E0,-2.420559584E0,-6.191938251E-1,4.081908316E0
9.964891958E0,3.047826953E0,-2.880541329E0,-6.902757946E-1,4.250088017E0
9.974880958E0,3.138802904E0,-3.669603201E0,-1.967278311E0,5.214235828E0
9.984870958E0,3.057781837E0,-3.884146898E0,-3.280325403E0,5.932719582E0
9.994859958E0,3.086314496E0,-3.464914400E0,-3.749059845E0,5.965435331E0
1.000484996E1,3.650133142E0,-3.272572580E0,-4.476411957E0,6.638634442E0
1.001483996E1,4.541308157E0,-3.398911030E0,-5.061563877E0,7.602335486E0
1.002482896E1,5.119358926E0,-3.379798821E0,-4.688164194E0,7.720735676E0
1.003481896E1,5.178608762E0,-2.775696659E0,-4.202515512E0,7.223822899E0
1.004480796E1,5.243536245E0,-2.393209818E0,-3.367915524E0,6.675700754E0
1.005479796E1,5.299716877E0,-2.244295269E0,-3.003080258E0,6.491714047E0
1.006478796E1,4.785171840E0,-1.940530661E0,-3.433640567E0,6.201081868E0
1.007477696E1,3.954023757E0,-2.743443418E0,-4.057657760E0,6.294868716E0
1.008476696E1,3.673735428E0,-4.644587234E0,-4.467662768E0,7.418121944E0
1.009475596E1,3.091721708E0,-6.033319078E0,-3.916863239E0,7.829527435E0
1.010474596E1,6.762459853E-1,-5.567232256E0,-9.521570885E-1,5.688408103E0
1.011473496E1,-2.666560718E0,-4.503936555E0,3.786929337E0,6.460404349E0
1.012472496E1,-4.790251609E0,-4.212544656E0,6.822204949E0,9.339942361E0
1.013471496E1,-5.417569848E0,-4.108120401E0,7.120467911E0,9.845190681E0
1.014470396E1,-5.006241031E0,-3.272458559E0,5.539882489E0,8.152406533E0
1.015469396E1,-4.015191187E0,-3.108509649E0,3.235402415E0,6.020998364E0
1.016468296E1,-2.350504971E0,-2.768950142E0,2.187490153E-1,3.638654921E0
1.017467296E1,-9.223024479E-1,-3.042370039E0,-1.214058482E0,3.403027366E0
1.018466196E1,3.914326425E-1,-3.965723743E0,2.712375991E0,4.820494563E0
1.019465196E1,1.250537726E0,-3.960801557E0,6.539524816E0,7.747075474E0
1.020464196E1,1.461977868E0,-3.964104064E0,6.017893538E0,7.352995509E0
1.021463096E1,1.424274437E0,-3.457863243E0,3.701429011E0,5.261744254E0
1.022462096E1,1.088760179E0,-2.955406154E0,1.662870656E0,3.561595581E0
1.023460996E1,3.776161104E-1,-2.123437999E0,2.586231669E0,3.367517945E0
1.024459996E1,-9.330058493E-1,-4.716504478E-1,6.140083973E0,6.228449667E0
1.025458996E1,-2.387107371E0,9.196132404E-1,7.467756268E0,7.893754100E0
1.026457896E1,-3.272139009E0,1.831481259E0,7.597983116E0,8.472931295E0
1.027456896E1,-3.475385886E0,2.392100016E0,7.676128814E0,8.759189638E0
1.028455796E1,-3.520304197E0,3.021486123E0,7.268046956E0,8.622437392E0
1.029454796E1,-3.552743380E0,3.737235020E0,5.708703300E0,7.692737126E0
1.030453696E1,-3.695656932E0,4.164155438E0,4.635670230E0,7.244826371E0
1.031452696E1,-3.969727331E0,4.492816905E0,4.522379258E0,7.509730553E0
1.032451696E1,-4.220790984E0,4.561379017E0,4.796553153E0,7.850361598E0
1.033450596E1,-4.925082262E0,4.156246494E0,5.486096292E0,8.463336974E0
1.034449596E1,-5.909691982E0,3.699678939E0,5.788830035E0,9.062154090E0
1.035448496E1,-6.662646128E0,3.637218981E0,5.249168283E0,9.228975187E0
1.036447496E1,-7.061237370E0,3.699615204E0,3.542209328E0,8.723271908E0
1.037446496E1,-6.820118662E0,4.054603175E0,1.968570107E0,8.174906344E0
1.038445396E1,-5.689858893E0,4.233640825E0,5.710077980E-1,7.115072647E0
1.039444396E1,-3.703535178E0,3.075941827E0,-1.460029283E-1,4.816524452E0
1.040443296E1,-2.148598422E0,1.390118803E0,-9.164601293E-1,2.718235574E0
1.041442296E1,-1.563470621E0,-1.825652754E-1,-1.364748319E0,2.083340692E0
1.042441196E1,-1.715256738E0,-2.222410895E0,-1.257805084E0,3.076246006E0
1.043440196E1,-1.970568831E0,-4.297036922E0,-1.329575271E0,4.910747217E0
1.044439196E1,-1.508982757E0,-5.977350115E0,-1.594933319E0,6.367853300E0
1.045438096E1,-1.066222233E-1,-7.246776540E0,-2.100896398E0,7.545919705E0
1.046437096E1,1.806154775E0,-7.099186969E0,-2.807002944E0,7.844738123E0
1.047435996E1,3.190674723E0,-3.466714173E0,-1.959599016E0,5.102797336E0
1.048434996E1,3.316030256E0,1.558703971E0,-8.216013345E-1,3.755082353E0
1.049433896E1,3.591556905E0,6.297840682E0,-9.577759704E-1,7.312961990E0
1.050432896E1,5.335635738E0,9.587439185E0,-8.792966884E-1,1.100732309E1
1.051431896E1,7.225977994E0,1.121940467E1,1.090146408E0,1.338948163E1
1.052430796E1,7.421384339E0,1.236896376E1,3.047030562E0,1.474288321E1
1.053429796E1,4.090108638E0,1.485351469E1,7.321996876E0,1.705777024E1
1.054428696E1,-1.606251921E0,1.636531113E1,1.303498735E1,2.098366862E1
1.055427696E1,-5.246132408E0,9.357219687E0,-1.251633348E0,1.080028016E1
1.056426696E1,-3.931042153E-1,1.299078825E0,-2.643537189E1,2.647019123E1
1.057425596E1,1.062829093E1,-1.629212504E1,-3.346993251E1,3.871214653E1
1.058424596E1,6.508881898E0,-2.838866001E1,-2.166808552E1,3.630134282E1
1.059423496E1,-4.175292630E0,-1.744558773E1,4.875441155E0,1.858901628E1
1.060422496E1,-7.826713328E0,-2.272940193E0,1.559315356E1,1.759460532E1
1.061421396E1,-6.532851974E0,8.464032353E0,1.169113231E1,1.584299761E1
1.062420396E1,-1.135458236E0,1.444706771E1,1.157389446E1,1.854621428E1
1.063419396E1,3.384860463E0,1.695058584E1,7.086600838E0,1.868152971E1
1.064418296E1,3.907523482E0,1.618283239E1,2.784408718E0,1.687915092E1
1.065417296E1,3.763098717E0,1.267245063E1,5.914672056E-1,1.323260180E1
1.066416196E1,3.866738568E0,7.906182836E0,-1.338339662E0,8.902277644E0
1.067415196E1,2.012049710E0,2.306648222E0,-5.069977435E-1,3.102582274E0
1.068414196E1,-5.831542191E-1,-3.203656712E0,-9.458429727E-1,3.390885445E0
1.069413096E1,-3.519383260E0,-7.364047712E0,3.441362692E0,8.857665292E0
1.070412096E1,-5.819212167E0,-1.149494653E1,3.252625973E0,1.328821288E1
1.071410996E1,-6.120032701E0,-1.751600107E1,-4.817658970E0,1.916963567E1
1.072409996E1,-4.914449100E0,-2.310549718E1,-7.908325256E0,2.491098991E1
1.073408896E1,-2.281747854E0,-2.355239052E1,-3.525473135E0,2.392384654E1
1.074407896E1,1.085426243E0,-2.006025792E1,-4.770373414E0,2.064820962E1
1.075406896E1,3.747171486E0,-1.678102711E1,-4.034968225E0,1.766140237E1
1.076405796E1,5.093461608E0,-1.564041660E1,-1.373798932E0,1.650615964E1
1.077404796E1,5.732389786E0,-1.672502248E1,-9.820018619E-2,1.768039346E1
1.078403696E1,6.561691026E0,-1.982999456E1,1.298362541E-1,2.088782734E1
1.079402696E1,7.546176785E0,-2.477791313E1,3.198267918E0,2.609825053E1
1.080401596E1,8.656395807E0,-2.876352033E1,5.725675428E0,3.057869600E1
1.081400596E1,9.778989292E0,-2.696913614E1,4.779559683E0,2.908276339E1
1.082399596E1,9.123791821E0,-1.755949383E1,1.487918748E0,1.984422593E1
1.083398496E1,6.703516996E0,-6.969392231E0,1.843954174E-1,9.671792484E0
1.084397496E1,4.201793673E0,-3.352723289E-1,-1.642384644E0,4.523815306E0
1.085396396E1,1.826883008E0,2.348054110E0,-4.485266980E0,5.382237408E0
1.086395396E1,-1.258669595E0,4.766506358E0,-3.047007465E0,5.795522971E0
1.087394396E1,-4.935072230E0,6.621003428E0,-1.892569460E0,8.471979902E0
1.088393296E1,-7.563271705E0,5.490927261E0,-6.784854105E0,1.154935523E1
1.089392296E1,-7.244564538E0,5.094614679E0,-1.455997394E1,1.704205549E1
1.090391196E1,-8.339939234E-1,4.535106307E0,-1.913550790E1,1.968325170E1
1.091390196E1,7.389425797E0,6.925105419E0,-1.324147242E1,1.667025166E1
1.092389096E1,8.595254397E0,9.068011723E0,-2.316360447E0,1.270719326E1
1.093388096E1,5.485957128E0,9.507334669E0,1.245307947E1,1.660013031E1
1.094387096E1,1.788391373E0,1.185865153E1,1.987170860E1,2.321014352E1
1.095385996E1,-4.779098922E-1,1.247445338E1,1.636518717E1,2.058299629E1
1.096384996E1,-1.723599545E0,1.163601645E1,1.005530005E1,1.547503581E1
1.097383896E1,-2.446921464E0,1.140274763E1,3.643673723E0,1.221828287E1
1.098382896E1,-2.055196314E0,1.130187848E1,-3.102882289E0,1.189891456E1
1.099381896E1,-2.421630210E-1,9.634206970E0,-5.134502045E0,1.091969313E1
1.100380796E1,-5.312666487E-1,7.514727536E0,-1.361040015E0,7.655442777E0
1.101379796E1,-2.193461038E0,6.993952290E0,2.822247512E0,7.854407742E0
1.102378696E1,-3.838549434E0,7.669793941E0,5.275784808E0,1.006946405E1
1.103377696E1,-4.947958324E0,8.962834931E0,5.212455955E0,1.148844631E1
1.104376596E1,-4.924043212E0,1.010235143E1,2.804854385E0,1.158321691E1
1.105375596E1,-4.254166014E0,1.094889260E1,6.568376148E-1,1.176467650E1
1.106374596E1,-3.697680361E0,1.118085632E1,-9.405059266E-1,1.181392989E1
1.107373496E1,-3.301769190E0,1.109956482E1,-2.183497674E0,1.178429807E1
1.108372496E1,-2.985854068E0,1.087684204E1,-2.748688370E0,1.160931975E1
1.109371396E1,-2.823225459E0,1.044117185E1,-2.309965932E0,1.106004585E1
1.110370396E1,-2.366434687E0,9.989261599E0,-1.495598335E0,1.037411080E1
1.111369396E1,-7.766309106E-1,1.086099024E1,1.350520436E-1,1.088955938E1
1.112368296E1,1.252045430E0,1.140351362E1,1.608403111E0,1.158424366E1
1.113367296E1,2.536632370E0,1.096515254E1,1.563558329E0,1.136282485E1
1.114366196E1,2.997268418E0,1.026838428E1,2.251811718E0,1.093133065E1
1.115365196E1,2.681715239E0,9.481612183E0,3.202661515E0,1.036096554E1
1.116364096E1,1.870928330E0,8.914502431E0,3.140670505E0,9.634964329E0
1.117363096E1,1.233266659E0,8.561285582E0,2.782629118E0,9.086230367E0
1.118362096E1,6.933748920E-1,8.117595350E0,2.096683040E0,8.412621635E0
1.119360996E1,2.306309230E-1,7.801586673E0,9.562830301E-1,7.863359490E0
1.120359996E1,3.533114277E-2,7.659404023E0,-1.438276179E-1,7.660835768E0
1.121358896E1,4.635092233E-1,7.675521873E0,-1.139194607E0,7.773431750E0
1.122357896E1,1.656216232E0,7.607687740E0,-2.282186834E0,8.113466688E0
1.123357296E1,3.390358015E0,7.199639211E0,-3.104487934E0,8.542082742E0
1.124356196E1,4.886417256E0,6.609387349E0,-3.655070531E0,8.995588659E0
1.125355196E1,6.020537065E0,5.590556214E0,-4.179899651E0,9.218066306E0
1.126354096E1,6.993695013E0,4.598839204E0,-5.542374573E0,1.003887483E1
1.127353096E1,7.735477468E0,4.444909497E0,-6.070043685E0,1.079074893E1
1.128351996E1,7.949823530E0,5.663429478E0,-5.852309747E0,1.138084606E1
1.129350996E1,7.752139109E0,7.071314462E0,-5.941328343E0,1.205813134E1
1.130349996E1,5.988867960E0,6.673872782E0,-3.918966483E0,9.785980566E0
1.131348896E1,4.502246417E-2,5.758446733E0,1.542982562E0,5.961755696E0
1.132347896E1,-6.100981888E0,-8.149755621E-1,1.054914770E1,1.221354504E1
1.133346796E1,-6.951785095E0,-4.740157635E0,1.422278139E1,1.652525100E1
1.134345796E1,-1.124369635E1,-1.238756960E1,6.634957223E0,1.799708992E1
1.135344696E1,-9.562497302E0,-2.487884542E1,-3.181229131E0,2.684247610E1
1.136343696E1,1.915075276E1,-4.724963295E1,-4.795406806E1,6.999194088E1
1.137342696E1,3.422765682E1,-7.003638671E1,-3.750152689E0,7.804288308E1
1.138341596E1,1.605022690E1,-4.659822505E1,3.209863882E1,5.881604352E1
1.139340596E1,1.804776733E0,-5.881467472E0,8.561144664E0,1.054239426E1
1.140339496E1,-2.659839343E0,3.400403239E0,-3.820170758E0,5.764650218E0
1.141338496E1,-4.978766134E0,6.604509017E0,-2.526517856E0,8.648175764E0
1.142337496E1,-9.690163069E0,1.058841877E1,-1.474868932E0,1.442875985E1
1.143336396E1,-1.484879365E1,1.572725711E1,-7.073393147E0,2.275667330E1
1.144335396E1,-1.534423408E1,1.445281319E1,-5.806177554E0,2.186414934E1
1.145334296E1,-1.272156724E1,6.684004837E0,-5.552172167E0,1.540586932E1
1.146333296E1,-6.839961773E0,-1.044013338E0,-3.617969947E0,7.807992536E0
1.147332196E1,9.678518924E-1,-7.081380444E0,-2.652350814E0,7.623493367E0
1.148331196E1,7.160426613E0,-1.435965535E1,-2.157569074E0,1.619032166E1
1.149330196E1,1.157133104E1,-2.107619059E1,-1.364092262E0,2.408240560E1
1.150329096E1,1.187242055E1,-2.256767497E1,1.729805195E-1,2.550067147E1
1.151328096E1,9.416782349E0,-1.399692800E1,5.436194399E-1,1.687854571E1
1.152326996E1,3.715346846E0,-6.109669096E0,-2.197210565E0,7.480614475E0
1.153325996E1,-1.424688419E0,-2.299254418E0,-2.584169941E0,3.740887897E0
1.154324896E1,-3.334077980E0,1.519131185E0,-2.977430277E0,4.721114973E0
1.155323896E1,-3.091055710E0,3.844572358E0,-4.408746808E0,6.616072130E0
1.156322896E1,-1.692915550E0,3.333436832E0,-5.813584807E0,6.911984699E0
1.157321796E1,-2.262960166E-1,1.907303274E-1,-6.465810138E0,6.472579755E0
1.158320796E1,1.009560228E0,-4.159430303E0,-6.257690191E0,7.581474713E0
1.159319696E1,2.510243593E0,-9.572457449E0,-5.619761302E0,1.138046491E1
1.160318696E1,4.239074350E0,-1.764880537E1,-3.512359293E0,1.848747549E1
1.161317596E1,6.305527432E0,-2.775825532E1,-1.148291413E0,2.848857644E1
1.162316596E1,8.377110568E0,-3.226724445E1,1.786069443E0,3.338474337E1
1.163315596E1,9.380227311E0,-2.437692979E1,1.992877275E0,2.619532268E1
1.164314496E1,8.065833458E0,-1.027472267E1,1.917871531E0,1.320249319E1
1.165313496E1,5.267352539E0,3.628121299E-1,2.304924463E0,5.761016593E0
1.166312396E1,2.915179065E0,4.546984341E0,6.890745572E-1,5.445012335E0
1.167311396E1,3.489620494E-1,4.913470277E0,2.204897314E0,5.396808023E0
1.168310396E1,-2.301375788E0,5.118484182E0,1.470499308E0,5.801515238E0
1.169309296E1,-4.577312387E0,5.390117755E0,-2.846642681E0,7.622895293E0
1.170308296E1,-6.671823333E0,5.378170139E0,-6.082595319E0,1.050884896E1
1.171307196E1,-7.995680904E0,5.047513018E0,-9.356141460E0,1.330209321E1
1.172306196E1,-6.595554006E0,4.572256007E0,-1.310706247E1,1.536886282E1
1.173305096E1,1.959984494E-1,3.842493088E0,-1.452171093E1,1.502275797E1
1.174304096E1,6.035126452E0,4.915388748E0,-9.646602482E0,1.239519009E1
1.175303096E1,5.913878004E0,7.064120632E0,-1.474533886E0,9.330059139E0
1.176301996E1,2.330448436E0,9.994828148E0,8.908941729E0,1.359032091E1
1.177300996E1,-1.630805987E0,1.204034089E1,1.521590641E1,1.947185519E1
1.178299896E1,-2.733289435E0,1.149329176E1,1.055655963E1,1.584321867E1
1.179298896E1,-1.863896176E0,1.215714370E1,3.696933671E0,1.284280228E1
1.180297896E1,4.420571047E-1,1.254900304E1,-1.361607195E0,1.263039453E1
1.181296796E1,2.073977863E0,1.104372976E1,-1.733112381E0,1.136965389E1
1.182295796E1,1.738431300E0,9.905047660E0,-5.577402099E-1,1.007190085E1
1.183294696E1,1.351700550E0,9.825048394E0,1.991510196E0,1.011557132E1
1.184293696E1,9.260656428E-1,1.009563532E1,3.839067789E0,1.084056694E1
1.185292596E1,1.498524427E-1,1.101343884E1,2.655290794E0,1.132999824E1
1.186291596E1,-8.966345599E-1,1.169465584E1,1.825741632E0,1.187022583E1
1.187290596E1,-1.602669770E0,1.136916473E1,1.569867475E0,1.158839682E1
1.188289496E1,-1.913891916E0,1.056877914E1,1.156643575E0,1.080277275E1
1.189288496E1,-1.954101757E0,1.028885188E1,7.286028314E-1,1.049808786E1
1.190287396E1,-1.631282535E0,1.036700342E1,3.648417715E-1,1.050090245E1
1.191286396E1,-1.353513479E0,1.031090641E1,3.297070221E-1,1.040459016E1
1.192285396E1,-1.314913085E0,9.833539721E0,4.810168102E-2,9.921180052E0
1.193284296E1,-1.382322711E0,9.105618675E0,-7.235403121E-1,9.238323339E0
1.194283296E1,-1.450933939E0,8.680727241E0,-6.051330256E-1,8.821928401E0
1.195282196E1,-1.637415680E0,8.564602123E0,-3.039536186E-1,8.725017331E0
1.196281196E1,-1.637401062E0,8.378285859E0,5.532518506E-2,8.536967673E0
1.197280096E1,-1.650664155E0,8.235181687E0,2.521509424E-1,8.402766787E0
1.198279096E1,-1.587315859E0,8.126331675E0,2.996407123E-1,8.285325744E0
1.199278096E1,-1.577822466E0,7.954852720E0,4.353414313E-1,8.121497873E0
1.200276996E1,-1.926023135E0,7.702187515E0,6.687929781E-1,7.967467709E0
1.201275996E1,-2.401490499E0,7.459670738E0,6.949418727E-1,7.867451197E0
1.202274896E1,-2.572608826E0,7.523151619E0,2.597020367E-1,7.955097209E0
1.203273896E1,-2.044061462E0,7.681725184E0,-7.671780825E-1,7.985965895E0
1.204272796E1,-8.688962460E-1,7.433573445E0,-1.262056887E0,7.589847326E0
1.205271796E1,4.754859290E-1,6.807655907E0,-1.582969916E0,7.005430720E0
1.206270796E1,2.665341573E0,5.152137247E0,-5.347926586E0,7.889796112E0
1.207269696E1,5.766922857E0,1.534726878E0,-6.379693515E0,8.735746973E0
1.208268696E1,8.529487254E0,-3.269241421E0,2.808575553E0,9.556578306E0
1.209267596E1,6.320573487E0,-1.007069109E1,7.592413058E0,1.410720399E1
1.210266596E1,-1.731223145E0,-1.592854985E1,1.113734485E1,1.951297733E1
1.211265596E1,-6.362300388E0,-2.253421954E1,-3.317195314E0,2.364896829E1
1.212264496E1,-5.355968846E0,-2.395296923E1,-7.939994946E0,2.579679548E1
1.213263496E1,-3.420547482E0,-1.151695194E1,1.372106222E1,1.823754028E1
1.214262396E1,-4.621053653E0,-4.366551545E0,4.317350734E0,7.685078179E0
1.215261396E1,-1.398400800E0,-8.141253185E0,-1.046542610E1,1.333269184E1
1.216260296E1,6.677348367E0,-1.662014565E1,-1.068815824E1,2.085792293E1
1.217259296E1,1.422608623E1,-2.642153270E1,-5.095911591E0,3.043759575E1
1.218258296E1,1.708801061E1,-3.013691902E1,4.399729524E0,3.492265188E1
1.219257196E1,1.291328692E1,-2.134640913E1,5.458550059E0,2.553855772E1
1.220256196E1,6.063864348E0,-9.411257315E0,8.515843946E-1,1.122797449E1
1.221255096E1,2.766683176E-1,-4.366232872E-2,-4.539192049E0,4.547825438E0
1.222254096E1,-4.977883204E0,8.247345065E0,-4.784645591E0,1.075596835E1
1.223253029E1,-9.171556556E0,1.304933876E1,-4.919632072E0,1.669147901E1
1.224251929E1,-1.088097953E1,1.473676217E1,-4.160437486E0,1.878502368E1
1.225250929E1,-9.486264228E0,1.246186316E1,-3.090340888E0,1.596362895E1
1.226249829E1,-4.290811391E0,4.666278650E0,-2.267486788E0,6.732511802E0
1.227248829E1,3.016095575E0,-3.600700196E0,-2.539198128E0,5.339419590E0
1.228247729E1,9.641727659E0,-1.056476795E1,-2.317833069E0,1.448963713E1
1.229246729E1,1.400588711E1,-1.648673675E1,-9.219991967E-1,2.165242353E1
1.230245729E1,1.559723024E1,-1.996124584E1,-1.909306237E0,2.540414094E1
1.231244629E1,1.401801657E1,-1.794680053E1,-4.131601650E0,2.314438528E1
1.232243629E1,9.365233296E0,-1.109910289E1,-3.509021702E0,1.494024474E1
1.233242529E1,4.967517845E0,-5.608082074E0,-4.647708186E0,8.816348987E0
1.234241529E1,3.106245315E0,-2.462357821E0,-7.175368588E0,8.197431327E0
1.235240429E1,2.614809936E0,-1.749001604E0,-6.251064126E0,6.998002595E0
1.236239429E1,3.097619502E0,-4.193796144E0,-4.155146048E0,6.666964178E0
1.237238429E1,4.295005599E0,-9.070316110E0,-2.280796220E0,1.029173158E1
1.238237329E1,5.679257891E0,-1.587080041E1,2.143016231E0,1.699202149E1
1.239236329E1,6.861911636E0,-2.298253959E1,4.585905747E0,2.441953089E1
1.240235229E1,6.755667728E0,-2.496857212E1,5.086662465E0,2.636176730E1
1.241234229E1,4.961471239E0,-1.708252475E1,2.923906034E0,1.802714829E1
1.242233129E1,4.174645050E0,-3.711968032E0,6.641618371E-2,5.586660816E0
1.243232129E1,3.382530932E0,4.662220098E0,8.365319073E-1,5.820446493E0
1.244231129E1,7.392739999E-1,7.395407499E0,2.950382227E0,7.996457554E0
1.245230029E1,-2.307189967E0,8.553549131E0,3.095531169E0,9.384489411E0
1.246229029E1,-4.477145197E0,8.178171920E0,-1.660185907E0,9.470139508E0
1.247227929E1,-5.374954171E0,7.313131328E0,-1.108007137E1,1.432270937E1
1.248226929E1,-4.991553994E0,6.611551988E0,-2.012461471E1,2.176300412E1
1.249225929E1,7.041766727E-1,3.057037194E0,-2.402039932E1,2.422438699E1
1.250224829E1,6.177672215E0,3.984685678E0,-1.740127168E1,1.889035760E1
1.251223829E1,6.150152879E0,6.567880304E0,-1.131829162E0,9.068763387E0
1.252222729E1,1.859468080E0,8.204852765E0,2.312245177E1,2.460538572E1
1.253221729E1,-6.856404144E-1,1.005216594E1,2.914974997E1,3.084192060E1
1.254220629E1,-1.110423675E0,1.110484486E1,1.675191733E1,2.012901772E1
1.255219629E1,-1.043711914E0,1.275822227E1,3.355041125E0,1.323321091E1
1.256218629E1,4.722448173E-1,1.344524672E1,-9.157537272E0,1.627446353E1
1.257217529E1,2.102889129E0,1.202087785E1,-1.385351218E1,1.846194590E1
1.258216529E1,1.352019516E0,9.161678270E0,-6.293523098E0,1.119699685E1
1.259215429E1,-2.703024905E-1,8.033736922E0,1.271811504E0,8.138273581E0
1.260214429E1,-1.449256665E0,7.975208048E0,4.225989743E0,9.141295182E0
1.261213329E1,-2.170095856E0,8.076890543E0,4.956400534E0,9.721696515E0
1.262212329E1,-3.179667048E0,8.960137026E0,3.935597134E0,1.028995932E1
1.263211329E1,-3.386174332E0,9.800970145E0,2.119377108E0,1.058380611E1
1.264210229E1,-3.272458852E0,1.041197670E1,2.204844507E-1,1.091635741E1
1.265209229E1,-3.278941660E0,1.073015294E1,-1.377972382E0,1.130426682E1
1.266208129E1,-2.891439954E0,1.091734804E1,-2.210730497E0,1.150809465E1
1.267207129E1,-1.591699224E0,1.145513283E1,-1.897504510E0,1.171981647E1
1.268206129E1,-9.713687003E-3,1.153019705E1,-1.429473488E0,1.161847377E1
1.269205029E1,9.575040749E-1,1.083404159E1,-1.040844074E0,1.092596117E1
1.270204029E1,1.186295683E0,9.608255857E0,8.984808183E-1,9.722815737E0
1.271202929E1,1.218082024E0,8.855751362E0,1.771411643E0,9.112955351E0
1.272201929E1,8.694429606E-1,8.877300691E0,5.795409322E-1,8.938583015E0
1.273200829E1,2.037889506E-1,9.077136303E0,-5.395934857E-2,9.079583966E0
1.274199829E1,-3.538609198E-1,9.168263989E0,3.380076563E-1,9.181314247E0
1.275198829E1,-8.238194758E-1,9.089589702E0,2.501346032E-1,9.130273096E0
1.276197729E1,-9.667847025E-1,8.989611086E0,-1.807399209E-1,9.043254229E0
1.277196729E1,-7.711383285E-1,8.854433400E0,-3.540958317E-1,8.895000226E0
1.278195629E1,-4.048211583E-1,8.721354865E0,-2.199406779E-1,8.733515028E0
1.279194629E1,-1.205542378E-2,8.625584489E0,-2.257634814E-1,8.628546938E0
1.280193629E1,5.077227252E-1,8.575587287E0,-5.766219290E-1,8.609934525E0
1.281192529E1,1.147283060E0,8.375076322E0,-1.131439737E0,8.528676198E0
1.282191529E1,1.877897188E0,7.727684884E0,-1.779670104E0,8.149284459E0
1.283190429E1,2.561480405E0,6.768370219E0,-2.139390811E0,7.546456806E0
1.284189429E1,3.065109276E0,5.738977259E0,-2.025228457E0,6.814125414E0
1.285188329E1,3.538260119E0,4.624324293E0,-4.097698324E0,7.120027485E0
1.286187329E1,4.301114185E0,2.523367669E0,-4.453400532E0,6.685786710E0
1.287186329E1,4.686380793E0,1.157085625E0,-2.041375251E0,5.241013737E0
1.288185229E1,2.738644608E0,-1.132750683E0,1.745372091E0,3.439421773E0
1.289184229E1,-4.859478549E0,-7.760228148E0,1.983211360E1,2.184372684E1
1.290183129E1,-7.960628600E0,-1.365201245E1,1.294435551E1,2.042805402E1
1.291182129E1,-8.499602135E0,-2.366907054E1,-6.233061719E0,2.590982816E1
1.292181029E1,-7.922576675E0,-2.486038927E1,7.328163350E-1,2.610255152E1
1.293180029E1,-5.473658094E0,-1.532203571E1,2.830026648E0,1.651468323E1
1.294179029E1,-5.571800101E-1,-1.432931298E1,-1.510183892E1,2.082559000E1
1.295177929E1,5.429447297E0,-2.072555879E1,-9.691428992E0,2.351492039E1
1.296176929E1,1.226035056E1,-2.691515465E1,-7.405115631E-1,2.958530215E1
1.297175829E1,1.769171224E1,-2.798154177E1,2.427951050E-1,3.310622768E1
1.298174829E1,1.561713065E1,-2.108350428E1,5.655996498E0,2.684025371E1
1.299173729E1,8.069341788E0,-1.115374044E1,2.330930539E0,1.396257283E1
1.300172729E1,3.387116611E-1,-4.187340233E0,-2.047218958E0,4.673291054E0
1.301171729E1,-5.605384169E0,1.832771155E0,-9.952393734E-1,5.980792857E0
1.302170629E1,-1.012664544E1,7.658612895E0,-1.173124245E0,1.275066743E1
1.303169629E1,-1.251372679E1,1.350643666E1,-4.187065998E0,1.888249748E1
1.304168529E1,-1.309544289E1,1.649709100E1,-4.494065285E0,2.153697422E1
1.305167529E1,-1.104175457E1,1.338288733E1,-6.570957109E0,1.855261422E1
1.306166529E1,-4.191387383E0,4.249354048E0,-7.574223540E0,9.643318944E0
1.307165429E1,4.137814316E0,-4.799504535E0,-4.286086257E0,7.650312837E0
1.308164429E1,1.164256884E1,-1.448393909E1,-4.825943890E-1,1.858942705E1
1.309163329E1,1.693009603E1,-2.304700398E1,2.153108233E0,2.867801281E1
1.310162329E1,1.899296681E1,-2.594870112E1,9.115326807E-1,3.216984255E1
1.311161229E1,1.594550443E1,-1.671462847E1,-4.190684840E-2,2.310064226E1
1.312160229E1,1.015910567E1,-6.445931359E0,-1.550516700E0,1.213101649E1
1.313159229E1,4.686606495E0,-1.976150730E0,-3.633602186E0,6.250801308E0
1.314158129E1,9.211995900E-1,5.872142333E-1,-5.132718644E0,5.247688055E0
1.315157129E1,-8.972514412E-1,1.939693925E0,-4.419502468E0,4.909121585E0
1.316156029E1,-8.279256830E-1,1.661138418E0,-3.910076376E0,4.328225855E0
1.317155029E1,7.533733910E-1,-1.273870309E0,-4.215235544E0,4.467496808E0
1.318153929E1,2.983011444E0,-7.251328012E0,-2.806863488E0,8.328180945E0
1.319152929E1,5.029085518E0,-1.520786649E1,-5.305740094E-1,1.602661577E1
1.320151929E1,6.937130803E0,-2.379216378E1,2.191484971E0,2.487957893E1
1.321150829E1,8.219362630E0,-2.730070368E1,3.573199571E0,2.873419737E1
1.322149829E1,7.865022531E0,-2.049172864E1,4.455181886E0,2.239683387E1
1.323148729E1,5.720511752E0,-8.794993529E0,2.930354344E0,1.089326133E1
1.324147371E1,3.105970788E0,-1.317258988E0,7.606900120E-1,3.458449808E0
1.325146271E1,9.056117901E-1,2.131511250E0,-9.720925856E-1,2.511660191E0
1.326145271E1,-1.488134802E0,4.649631627E0,-1.850281227E-1,4.885473863E0
1.327144271E1,-4.260507027E0,6.796842066E0,9.998949265E-1,8.083858736E0
1.328143171E1,-7.124988978E0,8.371572086E0,-3.208521010E0,1.145178127E1
1.329142171E1,-8.766245109E0,9.190286942E0,-1.152986025E1,1.715360326E1
1.330141071E1,-6.991288884E0,8.711208192E0,-1.828932341E1,2.143041341E1
1.331140071E1,-1.400302899E0,7.553891017E0,-1.932023781E1,2.079167398E1
1.332139071E1,4.283166449E0,7.435790709E0,-9.762983708E0,1.299816715E1
1.333137971E1,7.385973601E0,9.128860772E0,7.095009134E0,1.371961587E1
1.334136971E1,6.396961513E0,1.108754528E1,2.421754405E1,2.739241166E1
1.335135871E1,4.098031615E0,1.270861449E1,2.215292027E1,2.586609019E1
1.336134871E1,2.502170635E0,1.282244808E1,7.279574157E0,1.495554187E1
1.337133771E1,1.415171491E0,1.289631011E1,-6.171110469E0,1.436663249E1
1.338132771E1,1.913091725E0,1.079743568E1,-1.325015670E1,1.719916248E1
1.339131771E1,2.036172398E0,7.009305325E0,-8.916708001E0,1.152319577E1
1.340130671E1,7.462756752E-1,4.910218640E0,-1.790789316E0,5.279592868E0
1.341129671E1,-2.385191093E-1,4.182940203E0,2.985066741E0,5.144366195E0
1.342128571E1,-1.677767023E0,5.430307422E0,4.565625265E0,7.290272625E0
1.343127571E1,-3.322481197E0,7.512607920E0,2.892702953E0,8.708954555E0
1.344126571E1,-3.997481725E0,9.178556843E0,1.253404469E0,1.008943946E1
1.345125471E1,-4.084071680E0,1.052418828E1,-4.192453623E-3,1.128885282E1
1.346124471E1,-3.730957742E0,1.150231636E1,-2.305837798E-1,1.209448205E1
1.347123371E1,-3.002948111E0,1.251875890E1,4.449836727E-1,1.288157724E1
1.348122371E1,-1.669410913E0,1.292637649E1,9.533768908E-1,1.306855269E1
1.349121271E1,-3.355056693E-1,1.216021816E1,8.451635671E-1,1.219416956E1
1.350120271E1,2.063464862E-1,1.116463848E1,4.610178709E-1,1.117605784E1
1.351119271E1,3.769208034E-1,9.798383921E0,-2.974939071E-2,9.805675999E0
1.352118171E1,4.888034742E-1,9.069518550E0,-6.542589196E-1,9.106214927E0
1.353117171E1,2.847287775E-1,8.785080745E0,-8.603756102E-1,8.831702008E0
1.354116071E1,-8.238383330E-2,8.653479801E0,-7.309546546E-1,8.684687356E0
1.355115071E1,-4.690602044E-1,8.634737720E0,-4.585303923E-1,8.659616799E0
1.356113971E1,-6.052865881E-1,8.497545669E0,-2.084731916E-1,8.521626331E0
1.357112971E1,-6.722568686E-1,8.408282660E0,-1.863929359E-1,8.437173040E0
1.358111971E1,-5.891527314E-1,8.362048725E0,-5.021167803E-1,8.397802158E0
1.359110871E1,-1.881149409E-1,8.399159834E0,-6.628098878E-1,8.427371482E0
1.360109871E1,3.626383214E-1,8.465642091E0,-7.537025893E-1,8.506860182E0
1.361108771E1,9.436729248E-1,8.343306060E0,-1.025974678E0,8.458953756E0
1.362107771E1,1.699754746E0,8.082222619E0,-1.319880295E0,8.363825240E0
1.363106671E1,2.643668869E0,7.638585012E0,-2.065064806E0,8.342748871E0
1.364105671E1,3.774506927E0,6.962906499E0,-4.483818040E0,9.101296263E0
1.365104671E1,5.093361036E0,5.921176499E0,-8.004108496E0,1.118339888E1
1.366103571E1,6.594324921E0,3.186372342E0,-9.079579854E0,1.166519868E1
1.367102571E1,6.680647366E0,5.620355380E-1,-3.974490473E0,7.793812142E0
1.368101471E1,7.611577892E-1,-4.812481846E0,1.230252068E1,1.323220911E1
1.369100471E1,-6.544050561E0,-1.322400211E1,1.588371223E1,2.167927913E1
1.370099471E1,-9.011180295E0,-2.899626758E1,-1.600688032E1,3.432499266E1
1.371098371E1,-8.029083708E0,-3.544225682E1,-1.267923574E1,3.848873566E1
1.372097371E1,-4.889953068E0,-1.724757879E1,2.442414021E1,3.029734708E1
1.373096271E1,-3.761125866E0,7.412456810E-2,2.795483403E1,2.820681315E1
1.374095271E1,-9.248456213E-1,6.027005255E0,7.178340143E0,9.418529555E0
1.375094171E1,5.838436643E0,-1.510001927E0,-2.106696368E1,2.191311039E1
1.376093171E1,1.675893165E1,-2.526471020E1,-2.433882231E1,3.887860136E1
1.377092171E1,2.101689046E1,-5.467348247E1,1.646053304E1,6.084281813E1
1.378091071E1,1.669519817E1,-4.742133994E1,-1.014187042E1,5.128713932E1
1.379090071E1,4.761684160E0,-1.338709148E1,-1.079354962E1,1.784344607E1
1.380088971E1,-6.378684286E0,7.982741600E-1,4.088656189E0,7.618527698E0
1.381087971E1,-1.280509588E1,1.388161156E0,2.656949065E0,1.315130603E1
1.382086871E1,-1.217810129E1,1.863146271E0,-5.576717609E0,1.352321132E1
1.383085871E1,-9.341657907E0,-1.932072664E0,-4.837823678E0,1.069598126E1
1.384084871E1,-5.399148780E0,-7.681181393E0,3.385676149E0,9.980689261E0
1.385083771E1,-1.842217332E0,-1.112653803E1,2.266055682E0,1.150341782E1
1.386082771E1,4.046942738E0,-1.465472222E1,-8.916125326E-1,1.522936643E1
1.387081671E1,1.128935375E1,-1.634234093E1,-2.487171650E-2,1.986258376E1
1.388080671E1,1.553700625E1,-1.389273179E1,5.730798320E-1,2.085029929E1
1.389079571E1,1.446203308E1,-7.743032071E0,2.622905406E0,1.661278361E1
1.390078571E1,1.047237844E1,-2.109242713E0,1.602456493E0,1.080219801E1
1.391077571E1,5.846074276E0,1.379816594E0,3.223722017E-1,6.015347214E0
1.392076471E1,2.156524761E0,4.668842070E0,6.443574639E-1,5.183037898E0
1.393075471E1,-3.545653631E-1,7.517734759E0,8.078747034E-1,7.569327185E0
1.394074371E1,-1.717882138E0,9.666435653E0,-2.137554932E-1,9.820223454E0
1.395073371E1,-1.990067541E0,1.112560715E1,-1.619565300E0,1.141763964E1
1.396072271E1,-1.946531659E0,1.184885393E1,-3.038440125E0,1.238613916E1
1.397071271E1,-1.861593835E0,1.216810840E1,-4.475690410E0,1.309809903E1
1.398070271E1,-1.595314996E0,1.222675948E1,-4.496338098E0,1.312462318E1
1.399069171E1,-1.538451847E0,1.146843408E1,-2.444039225E0,1.182645941E1
1.400068171E1,-2.210206294E0,9.842711663E0,-5.019752777E-1,1.010029524E1
1.401067071E1,-2.993214836E0,8.522482290E0,8.839367464E-2,9.033263689E0
1.402066071E1,-3.130505705E0,7.891581169E0,4.793512309E-1,8.503346219E0
1.403065071E1,-2.373979495E0,7.793211122E0,1.955520876E-1,8.149120127E0
1.404063971E1,-4.397487701E-1,7.861666814E0,7.928369804E-1,7.913771197E0
1.405062971E1,5.923385869E-1,7.717688484E0,3.261992336E0,8.399653239E0
1.406061871E1,-2.168159258E-1,8.079402507E0,5.271404074E0,9.649427700E0
1.407060871E1,-1.598231880E0,8.826725199E0,6.168508458E0,1.088650171E1
1.408059771E1,-2.690334912E0,9.355470784E0,6.703808187E0,1.181963535E1
1.409058771E1,-3.400274893E0,9.756364076E0,5.405509965E0,1.166053375E1
1.410057771E1,-3.497800310E0,1.003339054E1,2.746062970E0,1.097471615E1
1.411056671E1,-2.843184345E0,9.628985991E0,9.871820565E-1,1.008838921E1
1.412055671E1,-2.181726553E0,8.491576247E0,-3.228379324E-2,8.767430647E0
1.413054571E1,-1.960199525E0,7.395256641E0,-7.465923750E-1,7.686976203E0
1.414053571E1,-1.672398109E0,6.789159409E0,-1.452448368E0,7.141372920E0
1.415052471E1,-1.281284578E0,6.446676294E0,-1.998544396E0,6.869898479E0
1.416051471E1,-6.688869721E-1,6.295094830E0,-3.220721226E0,7.102722993E0
1.417050471E1,3.728018054E-1,6.176843664E0,-4.274387147E0,7.520822051E0
1.418049371E1,1.081140234E0,5.094964342E0,-5.541705651E0,7.605131648E0
1.419048371E1,7.360840514E-1,2.811558217E0,-2.231218994E0,3.664016586E0
1.420047271E1,-1.869547217E0,8.999595791E-1,7.409493442E0,7.694525788E0
1.421046271E1,-3.502321085E0,1.738692963E-1,6.957338780E0,7.791087627E0
1.422045171E1,-4.021480745E0,-1.034867708E0,1.599550281E0,4.449923556E0
1.423044171E1,-5.271733857E0,-4.461224983E0,3.953502185E0,7.957630661E0
1.424043192E1,-3.067229476E0,-9.514999784E0,7.265095282E0,1.235818462E1
1.425042092E1,4.346511675E0,-1.762827463E1,-4.896470082E0,1.880488366E1
1.426041092E1,1.093737826E1,-2.876096392E1,-1.731715832E1,3.530868535E1
1.427039992E1,1.252846528E1,-2.979470955E1,9.817042387E0,3.377960155E1
1.428038992E1,1.307265395E1,-2.025801075E1,1.080236020E1,2.641916476E1
1.429037892E1,1.009451850E1,-1.436942955E1,-2.596211697E0,1.775162315E1
1.430036892E1,5.623678937E0,-1.379458043E1,-4.588692530E0,1.558756919E1
1.431035892E1,-1.019385743E0,-1.376826562E1,-2.916517493E0,1.411064703E1
1.432034792E1,-5.828575898E0,-1.132800501E1,-2.136991260E0,1.291753561E1
1.433033792E1,-8.148241192E0,-9.732161281E0,-3.689512385E0,1.321821846E1
1.434032692E1,-9.383982977E0,-1.032527535E1,-6.686099310E0,1.547172814E1
1.435031692E1,-9.638330426E0,-1.356673665E1,-6.255084672E0,1.777863440E1
1.436030592E1,-7.855986829E0,-1.779178850E1,-1.408112440E0,1.949992430E1
1.437029592E1,-3.547572102E0,-2.069792485E1,1.623300501E0,2.106239458E1
1.438028592E1,2.666041485E0,-2.243293173E1,8.698516810E-1,2.260753956E1
1.439027492E1,8.185464567E0,-2.118492073E1,3.071605532E0,2.291805963E1
1.440026492E1,1.018620167E1,-1.698486573E1,3.631334928E0,2.013531628E1
1.441025392E1,9.684641544E0,-1.001017592E1,2.113661893E0,1.408770636E1
1.442024392E1,8.204241731E0,-2.603829449E0,3.050278398E0,9.132015576E0
1.443023292E1,6.718785245E0,2.783390425E0,5.482621876E0,9.107605617E0
1.444022292E1,5.215474287E0,6.397466712E0,5.986519718E0,1.019642931E1
1.445021292E1,3.943299086E0,9.128819842E0,2.593189856E0,1.027665281E1
1.446020192E1,2.906419936E0,1.084267676E1,-7.081158249E0,1.327229137E1
1.447019192E1,1.931006278E0,9.570075293E0,-2.276162477E1,2.476704844E1
1.448018092E1,3.818975587E0,4.604120994E-1,-3.822797795E1,3.842102096E1
1.449017092E1,1.016540195E1,-8.409658509E0,-2.585718284E1,2.902846288E1
1.450015992E1,1.032912984E1,3.633956820E-1,1.310420523E0,1.041826193E1
1.451014992E1,7.737983585E0,8.511994139E0,3.100802317E1,3.307306964E1
1.452013992E1,4.716894195E0,1.227792028E1,4.177207827E1,4.379386875E1
1.453012892E1,1.697374637E0,1.490070523E1,2.297287766E1,2.743474448E1
1.454011892E1,7.441038001E-1,1.482809217E1,5.420009891E0,1.580514204E1
1.455010792E1,-8.355306447E-1,1.499388997E1,-9.299093685E0,1.766318180E1
1.456009792E1,-1.715232472E0,1.485367023E1,-1.804896308E1,2.343797368E1
1.457008792E1,-2.402943678E0,1.088435454E1,-1.432737872E1,1.815260568E1
1.458007692E1,-3.765669738E0,6.630549007E0,-6.227330278E0,9.845003357E0
1.459006692E1,-4.948379908E0,6.439168469E0,2.115561215E0,8.391957671E0
1.460005592E1,-5.693586493E0,6.558906582E0,7.475557623E0,1.145950018E1
1.461004592E1,-6.195752390E0,7.279204028E0,7.001234998E0,1.184868982E1
1.462003492E1,-5.871988551E0,8.482919444E0,3.100407747E0,1.077277587E1
1.463002492E1,-5.193223878E0,9.887162197E0,2.544088082E-1,1.117095674E1
1.464001492E1,-3.222525676E0,1.104798887E1,8.337544799E-1,1.153853874E1
1.465000392E1,-1.155473548E0,1.113053986E1,2.089820602E0,1.138382128E1
1.465999392E1,3.576749124E-2,1.046278432E1,6.709048462E-1,1.048433348E1
1.466998292E1,9.853628415E-1,9.826668073E0,-1.162681410E0,9.944152724E0
1.467997292E1,1.348679440E0,9.237342995E0,-2.464636481E0,9.655147581E0
1.468996192E1,1.408626410E0,8.895274447E0,-2.156018100E0,9.260591229E0
1.469995192E1,9.970455053E-1,9.087837292E0,-8.717204511E-1,9.183832693E0
1.470994192E1,1.997815248E-1,9.109487193E0,1.917723377E-1,9.113695529E0
1.471993092E1,-6.455744156E-1,8.835499531E0,1.209447441E0,8.941229300E0
1.472992092E1,-1.611819786E0,8.750314955E0,1.525620425E0,9.027374619E0
1.473990992E1,-2.554079000E0,8.623023409E0,1.338172724E0,9.092335150E0
1.474989992E1,-3.031474045E0,8.299698111E0,1.118126796E0,8.906460079E0
1.475988892E1,-2.786825665E0,8.122897021E0,5.164447244E-1,8.603171999E0
1.476987892E1,-2.326209936E0,7.809007375E0,-3.709414407E-1,8.156558490E0
1.477986892E1,-1.869818090E0,7.301302410E0,-9.797804316E-1,7.600342510E0
1.478985792E1,-1.304280216E0,6.726754416E0,-8.332433601E-1,6.902511597E0
1.479984792E1,-7.076269685E-1,6.352032677E0,-5.233562064E-1,6.412718361E0
1.480983692E1,-7.357683018E-2,6.373303678E0,-8.359121025E-1,6.428309448E0
1.481982692E1,5.666143464E-1,7.204671909E0,-2.780982542E0,7.743527170E0
1.482981592E1,1.187220713E0,7.908465589E0,-7.571945465E0,1.101306856E1
1.483980592E1,1.780553180E0,7.542995900E0,-7.096884921E0,1.050870745E1
1.484979592E1,1.589982482E0,6.969766452E0,5.642330678E-1,7.171056243E0
1.485978492E1,-7.139301208E-1,4.842837081E0,2.797134891E0,5.637972225E0
1.486977492E1,-4.502160171E0,-2.026727391E0,1.466439352E1,1.547325135E1
1.487976392E1,-5.156823791E0,-7.099299821E0,1.686933761E1,1.901492679E1
1.488975392E1,-2.388419487E0,-1.317731326E1,7.527029493E0,1.536236653E1
1.489974292E1,4.565015108E0,-2.326143541E1,-1.008706447E1,2.576203815E1
1.490973292E1,1.380395001E1,-3.234484168E1,-2.002291994E1,4.046795203E1
1.491972292E1,1.899718967E1,-3.263846780E1,2.994822235E0,3.788313287E1
1.492971192E1,1.997576565E1,-2.928464524E1,5.511543374E0,3.587476509E1
1.493970192E1,1.664941447E1,-2.444171694E1,-7.462804846E0,3.050072106E1
1.494969092E1,9.013734359E0,-1.961861421E1,-6.518330998E0,2.255273974E1
1.495968092E1,-4.194090843E-2,-1.742339287E1,-5.531499921E0,1.828042312E1
1.496966992E1,-6.573645074E0,-1.403033432E1,-6.279946156E-1,1.550669107E1
1.497965992E1,-9.686177607E0,-8.258644810E0,4.626400055E0,1.354366377E1
1.498964992E1,-1.148372104E1,-8.473223591E-1,2.963081210E0,1.189006537E1
1.499963892E1,-1.247880137E1,5.690895604E0,1.445491643E-1,1.371596409E1
1.500962892E1,-1.198136704E1,1.025371947E1,6.520440674E-1,1.578344324E1
1.501961792E1,-1.018591983E1,1.354983118E1,7.218751712E-1,1.696679085E1
1.502960792E1,-6.819942661E0,1.329621990E1,-5.271281283E0,1.584574037E1
1.503959792E1,-1.203075730E0,4.926614233E0,-9.152082989E0,1.046324720E1
1.504958692E1,4.876404192E0,-6.315208667E0,-3.739065199E0,8.811457706E0
1.505957692E1,1.030854764E1,-1.536605706E1,-3.465820134E-1,1.850680910E1
1.506956592E1,1.279335468E1,-1.909965043E1,-1.839126932E0,2.306185071E1
1.507955592E1,1.161229196E1,-1.372821804E1,1.456082705E0,1.803966385E1
1.508954492E1,8.485077066E0,-6.165875457E0,1.759892921E0,1.063540202E1
1.509953492E1,5.428916370E0,-1.985022710E0,1.349626250E0,5.935902553E0
1.510952392E1,3.010012717E0,9.173603082E-1,2.062861576E0,3.762595430E0
1.511951392E1,5.616759342E-1,2.586937428E0,-4.296497516E-1,2.681850857E0
1.512950392E1,-1.370348783E0,2.261670270E0,-2.490946612E0,3.632880843E0
1.513949292E1,-2.001595473E0,5.374333781E-1,-3.261523097E0,3.864291912E0
1.514948292E1,-1.672264208E0,-1.466466483E0,-3.941279458E0,4.525558009E0
1.515947192E1,-6.618773299E-1,-4.155401571E0,-5.764699745E0,7.137030683E0
1.516946192E1,8.383123845E-1,-7.916956331E0,-6.202437512E0,1.009213537E1
1.517945092E1,2.742377178E0,-1.223424742E1,-5.873060346E0,1.384522591E1
1.518944092E1,4.714036369E0,-1.699275713E1,-4.963633540E0,1.831975960E1
1.519943092E1,6.917152036E0,-2.245611477E1,-9.184560764E-1,2.351526407E1
1.520941992E1,9.406284842E0,-2.639519918E1,3.727732126E0,2.826801587E1
1.521940992E1,1.093054754E1,-2.419167129E1,5.745039067E0,2.716098862E1
1.522939892E1,1.047626917E1,-1.501100594E1,6.464487498E0,1.941319432E1
1.523938842E1,8.406605093E0,-4.031619524E0,4.272556969E0,1.025571588E1
1.524937842E1,5.504273531E0,2.870591707E0,4.260884757E0,7.529439738E0
1.525936742E1,1.627967456E0,6.527502356E0,4.525376540E0,8.107872587E0
1.526935742E1,-2.211618689E0,9.034539921E0,-2.603940912E-1,9.304943519E0
1.527934642E1,-4.942909838E0,1.094635023E1,-9.645329543E0,1.540413331E1
1.528933642E1,-6.069051998E0,9.044895340E0,-1.843822041E1,2.141521646E1
1.529932542E1,-3.326062032E0,3.199378304E0,-2.355877334E1,2.400655143E1
1.530931542E1,5.092112655E0,-3.634038681E0,-2.220244384E1,2.306695387E1
1.531930442E1,1.034313860E1,-2.830285680E0,-5.498679500E0,1.205099620E1
1.532929442E1,9.428483797E0,3.719935448E0,2.239343963E1,2.458048749E1
1.533928442E1,4.201502189E0,1.034067926E1,3.419081936E1,3.596657332E1
1.534927342E1,1.351767501E0,1.276868293E1,1.702838889E1,2.132680397E1
1.535926342E1,1.289947375E0,1.398964939E1,-1.134881262E0,1.409475824E1
1.536925242E1,1.197544483E0,1.536575768E1,-1.258728009E1,1.989925229E1
1.537924242E1,3.139987696E-1,1.427492919E1,-1.044008309E1,1.768806190E1
1.538923142E1,-1.884818391E0,1.139929426E1,-2.107699049E0,1.174473692E1
1.539922142E1,-4.236108935E0,9.112409631E0,2.978157670E0,1.048093752E1
1.540921142E1,-5.249538996E0,7.517704938E0,4.249230087E0,1.010591429E1
1.541920042E1,-5.211982915E0,7.120167949E0,3.232353677E0,9.397322375E0
1.542919042E1,-5.481066517E0,7.359845318E0,1.653837000E0,9.324408297E0
1.543917942E1,-5.615144926E0,7.579412359E0,1.337830077E0,9.527178678E0
1.544916942E1,-4.939737723E0,8.673086100E0,1.770622269E0,1.013698843E1
1.545915842E1,-3.610040831E0,1.022077859E1,3.677138507E-1,1.084582516E1
1.546914842E1,-1.805992661E0,1.119655025E1,-9.909767532E-1,1.138447987E1
1.547913842E1,-3.991289670E-1,1.138733086E1,-8.227371562E-1,1.142398812E1
1.548912742E1,3.838093351E-1,1.110735214E1,4.980273107E-1,1.112513427E1
1.549911742E1,8.846945456E-1,1.062756822E1,1.220869392E0,1.073398401E1
1.550910642E1,7.350537720E-1,9.922401026E0,5.110185814E-1,9.962704762E0
1.551909642E1,-4.900449112E-2,9.664796094E0,-4.783853439E-1,9.676752426E0
1.552908542E1,-7.369292665E-1,9.592281264E0,-2.153634775E-1,9.622957239E0
1.553907542E1,-1.192562583E0,9.337426277E0,3.911482485E-1,9.421397558E0
1.554906542E1,-1.570562855E0,9.063153271E0,7.701614050E-1,9.230415131E0
1.555905442E1,-1.929416420E0,8.977915485E0,9.157968358E-1,9.228450467E0
1.556904442E1,-2.122789543E0,9.128556717E0,9.249687052E-1,9.417661614E0
1.557903342E1,-2.089211322E0,9.173831123E0,1.014483730E0,9.463253070E0
1.558902342E1,-1.923980848E0,9.036116915E0,1.081881149E0,9.301805095E0
1.559901242E1,-1.632666133E0,8.816456904E0,7.791871671E-1,9.000146870E0
1.560900242E1,-1.238082572E0,8.383556539E0,1.328511516E-1,8.475524652E0
1.561899242E1,-6.807014175E-1,7.721540045E0,-3.815026816E-1,7.760868468E0
1.562898142E1,1.080433890E-2,7.276601433E0,-6.596176735E-1,7.306445142E0
1.563897142E1,8.263989750E-1,7.055435178E0,-7.353259599E-1,7.141624821E0
1.564896042E1,1.569333917E0,6.844264739E0,-9.178688698E-1,7.081613660E0
1.565895042E1,1.467265797E0,6.989044722E0,9.704062486E-1,7.207031521E0
1.566894042E1,5.483629936E-1,7.349912653E0,4.188954649E0,8.477573888E0
1.567892942E1,-2.365879932E-1,7.342310103E0,5.045843638E0,8.912128228E0
1.568891942E1,-6.872179931E-1,6.719662912E0,3.591831139E0,7.650319546E0
1.569890842E1,-2.143933952E0,5.192746160E0,2.765388018E0,6.261664025E0
1.570889842E1,-4.810621262E0,7.224527299E-2,5.726471819E0,7.479289792E0
1.571888742E1,-3.172391065E0,-8.043133982E0,-1.481733095E1,1.715544712E1
1.572887742E1,-1.179187808E0,-2.150877696E1,-2.114005621E1,3.018145038E1
1.573886642E1,-3.604252964E0,-3.048836942E1,1.257356836E1,3.317568282E1
1.574885642E1,-8.052786566E0,-2.626965478E1,1.803255346E1,3.286510487E1
1.575884642E1,-7.648790742E0,-1.410357069E1,1.062901248E1,1.924553487E1
1.576883542E1,-7.392950499E-1,-1.020456310E1,-8.850195923E0,1.352795746E1
1.577882542E1,9.592785879E0,-1.525420333E1,-1.498615410E1,2.343708759E1
1.578881442E1,1.871215311E1,-2.637324873E1,6.178144670E0,3.292206546E1
1.579880442E1,2.711185732E1,-3.784289202E1,-5.093411322E0,4.683033336E1
1.580879342E1,2.319269788E1,-3.469827815E1,-4.720078297E0,4.200179616E1
1.581878342E1,1.146272720E1,-1.907042722E1,3.097499342E0,2.246485725E1
1.582877342E1,3.085140082E0,-2.806404482E0,-5.940770372E-1,4.212709694E0
1.583876242E1,-5.038487256E0,4.682524554E0,5.125870385E0,8.578282884E0
1.584875242E1,-1.197018249E1,3.456599075E0,-2.427002485E0,1.269345056E1
1.585874142E1,-1.449233335E1,5.720947369E0,-6.561401589E0,1.690588523E1
1.586873142E1,-1.511283754E1,8.874089400E0,-5.106972184E0,1.825454699E1
1.587872142E1,-1.427387436E1,1.022105458E1,-3.204581741E0,1.784608613E1
1.588871042E1,-1.106056038E1,7.804592727E0,-1.053729072E0,1.357784993E1
1.589870042E1,-2.652878233E0,2.861936658E0,1.131510050E0,4.063097260E0
1.590868942E1,6.365254401E0,-4.415985661E0,8.464641340E-1,7.793195396E0
1.591867942E1,1.510014323E1,-1.422479283E1,1.492302844E0,2.079870247E1
1.592866842E1,2.215042935E1,-2.207575573E1,1.803875384E0,3.132466245E1
1.593865842E1,2.106748525E1,-1.929420250E1,2.648407452E0,2.869005484E1
1.594864742E1,1.436912550E1,-9.314007009E0,3.142259778E0,1.740966084E1
1.595863742E1,6.584017450E0,-2.150221170E0,3.088777635E0,7.583751323E0
1.596862742E1,3.980053514E-1,-1.383278146E0,7.012249982E-1,1.601119354E0
1.597861642E1,-1.622017622E0,1.139440482E0,6.604102635E-1,2.089355761E0
1.598860642E1,-8.893170619E-1,3.440086538E0,1.267132562E0,3.772360687E0
1.599859542E1,2.266712324E0,2.136656215E0,8.084835447E-2,3.116058567E0
1.600858542E1,6.746730843E0,-3.511434263E0,-2.881908993E0,8.133507675E0
1.601857442E1,1.136415484E1,-1.262160441E1,-2.607897942E0,1.718284158E1
1.602856442E1,1.541014272E1,-2.164947968E1,1.912887365E0,2.664266516E1
1.603855442E1,1.564963532E1,-2.251903081E1,3.637302597E0,2.766311270E1
1.604854342E1,1.081419029E1,-1.266350205E1,3.616748464E0,1.704088804E1
1.605853342E1,5.065459292E0,-1.752233945E0,4.028245096E0,6.704920595E0
1.606852242E1,9.863454661E-1,2.856587625E0,6.147853754E0,6.850479984E0
1.607851242E1,-1.800607668E0,5.301468118E0,4.680340619E0,7.297488643E0
1.608850142E1,-3.623962174E0,6.433556896E0,1.308797482E0,7.499113750E0
1.609849142E1,-5.033244642E0,7.437168313E0,-2.650283239E0,9.363173895E0
1.610848142E1,-6.292914988E0,8.623277763E0,-9.839708533E0,1.451831817E1
1.611847042E1,-6.583720411E0,9.460020754E0,-1.493125225E1,1.886212239E1
1.612846042E1,-3.851760048E0,6.324311612E0,-1.919841224E1,2.057697756E1
1.613844942E1,4.941143979E0,-2.616846521E0,-1.686099597E1,1.776389526E1
1.614843942E1,1.031868203E1,-7.785930169E-1,2.932986760E0,1.075564119E1
1.615842842E1,7.243188688E0,8.400034577E0,2.077226401E1,2.354806394E1
1.616841842E1,1.531050880E0,1.205224231E1,2.623281966E1,2.890953976E1
1.617840842E1,-1.105552067E0,1.255105775E1,1.668096488E1,2.090468573E1
1.618839742E1,-6.747729255E-1,1.301176689E1,1.408218859E0,1.310513169E1
1.619838742E1,-3.462794200E-1,1.438698874E1,-1.322256252E1,1.954332403E1
1.620837642E1,2.154118632E-1,1.306758909E1,-9.448036301E0,1.612679996E1
1.621836642E1,1.721389590E-1,9.997448870E0,-2.450054694E0,1.029472602E1
1.622835542E1,-9.987165664E-1,8.054912614E0,2.050339032E0,8.371555539E0
1.623834579E1,-2.490546078E0,7.047109328E0,4.438612046E0,8.692861816E0
1.624833579E1,-4.154718617E0,7.668960128E0,3.759486015E0,9.497808764E0
1.625832479E1,-5.221713266E0,8.734379538E0,1.713306692E0,1.031945227E1
1.626831479E1,-5.485668275E0,9.274283949E0,-2.776432677E-1,1.077877474E1
1.627830379E1,-5.654213682E0,9.548252900E0,-1.434084603E0,1.118909578E1
1.628829379E1,-5.802887911E0,9.779735981E0,-5.656689978E-1,1.138581246E1
1.629828279E1,-5.747249315E0,9.725340503E0,8.324797869E-1,1.132723025E1
1.630827279E1,-4.948566434E0,9.617561701E0,1.508614529E0,1.092070147E1
1.631826279E1,-3.172322652E0,9.363595490E0,1.363709708E0,9.979992770E0
1.632825179E1,-1.186890637E0,8.934495231E0,5.445067549E-1,9.029418698E0
1.633824179E1,-7.368095447E-1,8.632736803E0,-3.500575253E-1,8.671192149E0
1.634823079E1,-9.969406208E-1,8.288770249E0,4.286511934E-1,8.359506247E0
1.635822079E1,-1.352796903E0,8.357217756E0,8.192394979E-1,8.505545334E0
1.636820979E1,-1.700876681E0,8.701696526E0,1.430271195E0,8.980989901E0
1.637819979E1,-1.893787727E0,8.937849779E0,1.975841997E0,9.347488551E0
1.638818979E1,-2.137742773E0,9.362110882E0,1.725557778E0,9.756875216E0
1.639817879E1,-2.356414606E0,9.286954281E0,1.125949275E0,9.647174269E0
1.640816879E1,-2.552309925E0,8.810129632E0,9.489551532E-1,9.221344043E0
1.641815779E1,-3.032503155E0,8.482858633E0,7.254231155E-1,9.037765468E0
1.642814779E1,-3.540789040E0,8.003409169E0,4.426448230E-1,8.762857969E0
1.643813679E1,-3.647889858E0,7.539774669E0,-5.163091421E-2,8.376035352E0
1.644812679E1,-2.834378438E0,7.244803104E0,-1.529194389E0,7.928386257E0
1.645811679E1,-1.068504693E0,7.317424353E0,-4.703376310E0,8.764025910E0
1.646810579E1,1.177000072E0,6.356743779E0,-7.740996655E0,1.008546230E1
1.647809579E1,2.860752012E0,4.379275087E0,-5.552705433E0,7.628531313E0
1.648808479E1,4.719577483E0,2.884405754E0,-4.390922155E0,7.062181359E0
1.649807479E1,6.089151217E0,-2.260895514E0,-1.015011616E1,1.205048834E1
1.650806379E1,1.389679970E0,-1.450224789E1,4.352334040E0,1.520490762E1
1.651805379E1,-1.038337446E0,-2.461190366E1,1.593001633E1,2.933580349E1
1.652804379E1,8.844831687E-1,-2.929576664E1,1.853834463E1,3.467988574E1
1.653803279E1,1.661051295E0,-2.259359450E1,5.624570053E0,2.334235190E1
1.654802279E1,6.196154094E0,-1.043819678E1,-1.121167115E1,1.652422003E1
1.655801179E1,1.064277449E1,-1.081043053E1,-1.990862324E1,2.502972905E1
